Time of Day (radians), Surface Temperature (K)
   0.00000,  53.84959
   0.00126,  53.84514
   0.00251,  53.84069
   0.00377,  53.83625
   0.00503,  53.83181
   0.00628,  53.82737
   0.00754,  53.82293
   0.00880,  53.81850
   0.01005,  53.81407
   0.01131,  53.80965
   0.01257,  53.80523
   0.01382,  53.80081
   0.01508,  53.79639
   0.01634,  53.79198
   0.01759,  53.78757
   0.01885,  53.78317
   0.02011,  53.77877
   0.02136,  53.77437
   0.02262,  53.76998
   0.02388,  53.76559
   0.02513,  53.76120
   0.02639,  53.75681
   0.02765,  53.75243
   0.02890,  53.74805
   0.03016,  53.74368
   0.03142,  53.73931
   0.03267,  53.73494
   0.03393,  53.73058
   0.03519,  53.72622
   0.03644,  53.72186
   0.03770,  53.71750
   0.03896,  53.71315
   0.04021,  53.70880
   0.04147,  53.70446
   0.04273,  53.70012
   0.04398,  53.69578
   0.04524,  53.69144
   0.04650,  53.68711
   0.04775,  53.68278
   0.04901,  53.67846
   0.05027,  53.67414
   0.05152,  53.66982
   0.05278,  53.66550
   0.05404,  53.66119
   0.05529,  53.65688
   0.05655,  53.65258
   0.05781,  53.64827
   0.05906,  53.64397
   0.06032,  53.63968
   0.06158,  53.63538
   0.06283,  53.63110
   0.06409,  53.62681
   0.06535,  53.62253
   0.06660,  53.61825
   0.06786,  53.61397
   0.06912,  53.60969
   0.07037,  53.60542
   0.07163,  53.60116
   0.07288,  53.59689
   0.07414,  53.59263
   0.07540,  53.58837
   0.07665,  53.58412
   0.07791,  53.57987
   0.07917,  53.57562
   0.08042,  53.57137
   0.08168,  53.56713
   0.08294,  53.56289
   0.08419,  53.55866
   0.08545,  53.55442
   0.08671,  53.55019
   0.08796,  53.54597
   0.08922,  53.54175
   0.09048,  53.53753
   0.09173,  53.53331
   0.09299,  53.52909
   0.09425,  53.52488
   0.09550,  53.52068
   0.09676,  53.51647
   0.09802,  53.51227
   0.09927,  53.50807
   0.10053,  53.50387
   0.10179,  53.49968
   0.10304,  53.49549
   0.10430,  53.49131
   0.10556,  53.48712
   0.10681,  53.48294
   0.10807,  53.47877
   0.10933,  53.47459
   0.11058,  53.47042
   0.11184,  53.46625
   0.11310,  53.46209
   0.11435,  53.45793
   0.11561,  53.45377
   0.11687,  53.44961
   0.11812,  53.44546
   0.11938,  53.44131
   0.12064,  53.43716
   0.12189,  53.43302
   0.12315,  53.42888
   0.12441,  53.42474
   0.12566,  53.42061
   0.12692,  53.41647
   0.12818,  53.41235
   0.12943,  53.40822
   0.13069,  53.40410
   0.13195,  53.39998
   0.13320,  53.39586
   0.13446,  53.39175
   0.13572,  53.38764
   0.13697,  53.38353
   0.13823,  53.37942
   0.13949,  53.37532
   0.14074,  53.37122
   0.14200,  53.36712
   0.14326,  53.36303
   0.14451,  53.35894
   0.14577,  53.35485
   0.14703,  53.35077
   0.14828,  53.34669
   0.14954,  53.34261
   0.15080,  53.33853
   0.15205,  53.33446
   0.15331,  53.33039
   0.15457,  53.32632
   0.15582,  53.32226
   0.15708,  53.31820
   0.15834,  53.31414
   0.15959,  53.31009
   0.16085,  53.30603
   0.16211,  53.30198
   0.16336,  53.29794
   0.16462,  53.29389
   0.16588,  53.28985
   0.16713,  53.28581
   0.16839,  53.28178
   0.16965,  53.27775
   0.17090,  53.27372
   0.17216,  53.26969
   0.17342,  53.26567
   0.17467,  53.26165
   0.17593,  53.25763
   0.17719,  53.25361
   0.17844,  53.24960
   0.17970,  53.24559
   0.18096,  53.24158
   0.18221,  53.23758
   0.18347,  53.23358
   0.18473,  53.22958
   0.18598,  53.22559
   0.18724,  53.22159
   0.18850,  53.21760
   0.18975,  53.21362
   0.19101,  53.20963
   0.19227,  53.20565
   0.19352,  53.20167
   0.19478,  53.19770
   0.19604,  53.19372
   0.19729,  53.18975
   0.19855,  53.18579
   0.19981,  53.18182
   0.20106,  53.17786
   0.20232,  53.17390
   0.20358,  53.16994
   0.20483,  53.16599
   0.20609,  53.16204
   0.20735,  53.15809
   0.20860,  53.15415
   0.20986,  53.15020
   0.21112,  53.14626
   0.21237,  53.14233
   0.21363,  53.13839
   0.21488,  53.13446
   0.21614,  53.13053
   0.21740,  53.12661
   0.21865,  53.12268
   0.21991,  53.11876
   0.22117,  53.11484
   0.22242,  53.11093
   0.22368,  53.10702
   0.22494,  53.10311
   0.22619,  53.09920
   0.22745,  53.09529
   0.22871,  53.09139
   0.22996,  53.08749
   0.23122,  53.08360
   0.23248,  53.07970
   0.23373,  53.07581
   0.23499,  53.07192
   0.23625,  53.06804
   0.23750,  53.06415
   0.23876,  53.06027
   0.24002,  53.05640
   0.24127,  53.05252
   0.24253,  53.04865
   0.24379,  53.04478
   0.24504,  53.04091
   0.24630,  53.03705
   0.24756,  53.03319
   0.24881,  53.02933
   0.25007,  53.02547
   0.25133,  53.02162
   0.25258,  53.01777
   0.25384,  53.01392
   0.25510,  53.01007
   0.25635,  53.00623
   0.25761,  53.00239
   0.25887,  52.99855
   0.26012,  52.99471
   0.26138,  52.99088
   0.26264,  52.98705
   0.26389,  52.98322
   0.26515,  52.97940
   0.26641,  52.97558
   0.26766,  52.97176
   0.26892,  52.96794
   0.27018,  52.96412
   0.27143,  52.96031
   0.27269,  52.95650
   0.27395,  52.95269
   0.27520,  52.94889
   0.27646,  52.94509
   0.27772,  52.94129
   0.27897,  52.93749
   0.28023,  52.93370
   0.28149,  52.92991
   0.28274,  52.92612
   0.28400,  52.92233
   0.28526,  52.91855
   0.28651,  52.91477
   0.28777,  52.91099
   0.28903,  52.90721
   0.29028,  52.90344
   0.29154,  52.89967
   0.29280,  52.89590
   0.29405,  52.89213
   0.29531,  52.88837
   0.29657,  52.88461
   0.29782,  52.88085
   0.29908,  52.87709
   0.30034,  52.87334
   0.30159,  52.86959
   0.30285,  52.86584
   0.30411,  52.86209
   0.30536,  52.85835
   0.30662,  52.85461
   0.30788,  52.85087
   0.30913,  52.84713
   0.31039,  52.84340
   0.31165,  52.83967
   0.31290,  52.83594
   0.31416,  52.83221
   0.31542,  52.82849
   0.31667,  52.82477
   0.31793,  52.82105
   0.31919,  52.81733
   0.32044,  52.81362
   0.32170,  52.80991
   0.32296,  52.80620
   0.32421,  52.80249
   0.32547,  52.79879
   0.32673,  52.79509
   0.32798,  52.79139
   0.32924,  52.78769
   0.33050,  52.78400
   0.33175,  52.78031
   0.33301,  52.77662
   0.33427,  52.77293
   0.33552,  52.76925
   0.33678,  52.76556
   0.33804,  52.76188
   0.33929,  52.75821
   0.34055,  52.75453
   0.34181,  52.75086
   0.34306,  52.74719
   0.34432,  52.74352
   0.34558,  52.73986
   0.34683,  52.73619
   0.34809,  52.73253
   0.34935,  52.72888
   0.35060,  52.72522
   0.35186,  52.72157
   0.35312,  52.71792
   0.35437,  52.71427
   0.35563,  52.71062
   0.35688,  52.70698
   0.35814,  52.70334
   0.35940,  52.69970
   0.36065,  52.69606
   0.36191,  52.69243
   0.36317,  52.68880
   0.36442,  52.68517
   0.36568,  52.68154
   0.36694,  52.67792
   0.36819,  52.67429
   0.36945,  52.67067
   0.37071,  52.66706
   0.37196,  52.66344
   0.37322,  52.65983
   0.37448,  52.65622
   0.37573,  52.65261
   0.37699,  52.64900
   0.37825,  52.64540
   0.37950,  52.64180
   0.38076,  52.63820
   0.38202,  52.63460
   0.38327,  52.63101
   0.38453,  52.62742
   0.38579,  52.62383
   0.38704,  52.62024
   0.38830,  52.61665
   0.38956,  52.61307
   0.39081,  52.60949
   0.39207,  52.60591
   0.39333,  52.60234
   0.39458,  52.59876
   0.39584,  52.59519
   0.39710,  52.59162
   0.39835,  52.58806
   0.39961,  52.58449
   0.40087,  52.58093
   0.40212,  52.57737
   0.40338,  52.57381
   0.40464,  52.57026
   0.40589,  52.56670
   0.40715,  52.56315
   0.40841,  52.55960
   0.40966,  52.55606
   0.41092,  52.55251
   0.41218,  52.54897
   0.41343,  52.54543
   0.41469,  52.54190
   0.41595,  52.53836
   0.41720,  52.53483
   0.41846,  52.53130
   0.41972,  52.52777
   0.42097,  52.52424
   0.42223,  52.52072
   0.42349,  52.51720
   0.42474,  52.51368
   0.42600,  52.51016
   0.42726,  52.50665
   0.42851,  52.50314
   0.42977,  52.49963
   0.43103,  52.49612
   0.43228,  52.49261
   0.43354,  52.48911
   0.43480,  52.48561
   0.43605,  52.48211
   0.43731,  52.47861
   0.43857,  52.47512
   0.43982,  52.47162
   0.44108,  52.46813
   0.44234,  52.46464
   0.44359,  52.46116
   0.44485,  52.45767
   0.44611,  52.45419
   0.44736,  52.45071
   0.44862,  52.44724
   0.44988,  52.44376
   0.45113,  52.44029
   0.45239,  52.43682
   0.45365,  52.43335
   0.45490,  52.42988
   0.45616,  52.42642
   0.45742,  52.42296
   0.45867,  52.41950
   0.45993,  52.41604
   0.46119,  52.41258
   0.46244,  52.40913
   0.46370,  52.40568
   0.46496,  52.40223
   0.46621,  52.39878
   0.46747,  52.39534
   0.46873,  52.39189
   0.46998,  52.38845
   0.47124,  52.38502
   0.47250,  52.38158
   0.47375,  52.37815
   0.47501,  52.37471
   0.47627,  52.37128
   0.47752,  52.36786
   0.47878,  52.36443
   0.48004,  52.36101
   0.48129,  52.35759
   0.48255,  52.35417
   0.48381,  52.35075
   0.48506,  52.34733
   0.48632,  52.34392
   0.48758,  52.34051
   0.48883,  52.33710
   0.49009,  52.33370
   0.49135,  52.33029
   0.49260,  52.32689
   0.49386,  52.32349
   0.49512,  52.32009
   0.49637,  52.31669
   0.49763,  52.31330
   0.49888,  52.30991
   0.50014,  52.30652
   0.50140,  52.30313
   0.50265,  52.29975
   0.50391,  52.29636
   0.50517,  52.29298
   0.50642,  52.28960
   0.50768,  52.28622
   0.50894,  52.28285
   0.51019,  52.27947
   0.51145,  52.27610
   0.51271,  52.27273
   0.51396,  52.26937
   0.51522,  52.26600
   0.51648,  52.26264
   0.51773,  52.25928
   0.51899,  52.25592
   0.52025,  52.25256
   0.52150,  52.24921
   0.52276,  52.24586
   0.52402,  52.24251
   0.52527,  52.23916
   0.52653,  52.23581
   0.52779,  52.23247
   0.52904,  52.22912
   0.53030,  52.22578
   0.53156,  52.22244
   0.53281,  52.21911
   0.53407,  52.21577
   0.53533,  52.21244
   0.53658,  52.20911
   0.53784,  52.20578
   0.53910,  52.20246
   0.54035,  52.19913
   0.54161,  52.19581
   0.54287,  52.19249
   0.54412,  52.18917
   0.54538,  52.18586
   0.54664,  52.18254
   0.54789,  52.17923
   0.54915,  52.17592
   0.55041,  52.17261
   0.55166,  52.16930
   0.55292,  52.16600
   0.55418,  52.16270
   0.55543,  52.15940
   0.55669,  52.15610
   0.55795,  52.15280
   0.55920,  52.14951
   0.56046,  52.14622
   0.56172,  52.14293
   0.56297,  52.13964
   0.56423,  52.13635
   0.56549,  52.13307
   0.56674,  52.12978
   0.56800,  52.12650
   0.56926,  52.12322
   0.57051,  52.11995
   0.57177,  52.11667
   0.57303,  52.11340
   0.57428,  52.11013
   0.57554,  52.10686
   0.57680,  52.10359
   0.57805,  52.10033
   0.57931,  52.09707
   0.58057,  52.09381
   0.58182,  52.09055
   0.58308,  52.08729
   0.58434,  52.08403
   0.58559,  52.08078
   0.58685,  52.07753
   0.58811,  52.07428
   0.58936,  52.07103
   0.59062,  52.06779
   0.59188,  52.06454
   0.59313,  52.06130
   0.59439,  52.05806
   0.59565,  52.05482
   0.59690,  52.05159
   0.59816,  52.04835
   0.59942,  52.04512
   0.60067,  52.04189
   0.60193,  52.03866
   0.60319,  52.03544
   0.60444,  52.03221
   0.60570,  52.02899
   0.60696,  52.02577
   0.60821,  52.02255
   0.60947,  52.01933
   0.61073,  52.01612
   0.61198,  52.01291
   0.61324,  52.00969
   0.61450,  52.00649
   0.61575,  52.00328
   0.61701,  52.00007
   0.61827,  51.99687
   0.61952,  51.99367
   0.62078,  51.99047
   0.62204,  51.98727
   0.62329,  51.98407
   0.62455,  51.98088
   0.62581,  51.97769
   0.62706,  51.97450
   0.62832,  51.97131
   0.62958,  51.96812
   0.63083,  51.96493
   0.63209,  51.96175
   0.63335,  51.95857
   0.63460,  51.95539
   0.63586,  51.95221
   0.63712,  51.94904
   0.63837,  51.94586
   0.63963,  51.94269
   0.64088,  51.93952
   0.64214,  51.93635
   0.64340,  51.93319
   0.64465,  51.93002
   0.64591,  51.92686
   0.64717,  51.92370
   0.64842,  51.92054
   0.64968,  51.91738
   0.65094,  51.91423
   0.65219,  51.91107
   0.65345,  51.90792
   0.65471,  51.90477
   0.65596,  51.90162
   0.65722,  51.89848
   0.65848,  51.89533
   0.65973,  51.89219
   0.66099,  51.88905
   0.66225,  51.88591
   0.66350,  51.88277
   0.66476,  51.87964
   0.66602,  51.87650
   0.66727,  51.87337
   0.66853,  51.87024
   0.66979,  51.86711
   0.67104,  51.86399
   0.67230,  51.86086
   0.67356,  51.85774
   0.67481,  51.85462
   0.67607,  51.85150
   0.67733,  51.84838
   0.67858,  51.84527
   0.67984,  51.84215
   0.68110,  51.83904
   0.68235,  51.83593
   0.68361,  51.83282
   0.68487,  51.82972
   0.68612,  51.82661
   0.68738,  51.82351
   0.68864,  51.82041
   0.68989,  51.81731
   0.69115,  51.81421
   0.69241,  51.81111
   0.69366,  51.80802
   0.69492,  51.80493
   0.69618,  51.80183
   0.69743,  51.79875
   0.69869,  51.79566
   0.69995,  51.79257
   0.70120,  51.78949
   0.70246,  51.78641
   0.70372,  51.78333
   0.70497,  51.78025
   0.70623,  51.77717
   0.70749,  51.77410
   0.70874,  51.77102
   0.71000,  51.76795
   0.71126,  51.76488
   0.71251,  51.76181
   0.71377,  51.75875
   0.71503,  51.75568
   0.71628,  51.75262
   0.71754,  51.74956
   0.71880,  51.74650
   0.72005,  51.74344
   0.72131,  51.74039
   0.72257,  51.73733
   0.72382,  51.73428
   0.72508,  51.73123
   0.72634,  51.72818
   0.72759,  51.72513
   0.72885,  51.72209
   0.73011,  51.71904
   0.73136,  51.71600
   0.73262,  51.71296
   0.73388,  51.70992
   0.73513,  51.70688
   0.73639,  51.70385
   0.73765,  51.70082
   0.73890,  51.69778
   0.74016,  51.69475
   0.74142,  51.69173
   0.74267,  51.68870
   0.74393,  51.68567
   0.74519,  51.68265
   0.74644,  51.67963
   0.74770,  51.67661
   0.74896,  51.67359
   0.75021,  51.67057
   0.75147,  51.66756
   0.75273,  51.66454
   0.75398,  51.66153
   0.75524,  51.65852
   0.75650,  51.65551
   0.75775,  51.65251
   0.75901,  51.64950
   0.76027,  51.64650
   0.76152,  51.64350
   0.76278,  51.64050
   0.76404,  51.63750
   0.76529,  51.63450
   0.76655,  51.63151
   0.76781,  51.62852
   0.76906,  51.62552
   0.77032,  51.62253
   0.77158,  51.61955
   0.77283,  51.61656
   0.77409,  51.61357
   0.77535,  51.61059
   0.77660,  51.60761
   0.77786,  51.60463
   0.77911,  51.60165
   0.78037,  51.59867
   0.78163,  51.59570
   0.78288,  51.59273
   0.78414,  51.58975
   0.78540,  51.58678
   0.78665,  51.58382
   0.78791,  51.58085
   0.78917,  51.57788
   0.79042,  51.57492
   0.79168,  51.57196
   0.79294,  51.56900
   0.79419,  51.56604
   0.79545,  51.56308
   0.79671,  51.56013
   0.79796,  51.55717
   0.79922,  51.55422
   0.80048,  51.55127
   0.80173,  51.54832
   0.80299,  51.54537
   0.80425,  51.54243
   0.80550,  51.53948
   0.80676,  51.53654
   0.80802,  51.53360
   0.80927,  51.53066
   0.81053,  51.52772
   0.81179,  51.52479
   0.81304,  51.52185
   0.81430,  51.51892
   0.81556,  51.51599
   0.81681,  51.51306
   0.81807,  51.51013
   0.81933,  51.50720
   0.82058,  51.50428
   0.82184,  51.50136
   0.82310,  51.49843
   0.82435,  51.49551
   0.82561,  51.49260
   0.82687,  51.48968
   0.82812,  51.48676
   0.82938,  51.48385
   0.83064,  51.48094
   0.83189,  51.47803
   0.83315,  51.47512
   0.83441,  51.47221
   0.83566,  51.46930
   0.83692,  51.46640
   0.83818,  51.46350
   0.83943,  51.46060
   0.84069,  51.45770
   0.84195,  51.45480
   0.84320,  51.45190
   0.84446,  51.44901
   0.84572,  51.44611
   0.84697,  51.44322
   0.84823,  51.44033
   0.84949,  51.43744
   0.85074,  51.43456
   0.85200,  51.43167
   0.85326,  51.42879
   0.85451,  51.42590
   0.85577,  51.42302
   0.85703,  51.42014
   0.85828,  51.41727
   0.85954,  51.41439
   0.86080,  51.41152
   0.86205,  51.40864
   0.86331,  51.40577
   0.86457,  51.40290
   0.86582,  51.40003
   0.86708,  51.39716
   0.86834,  51.39430
   0.86959,  51.39144
   0.87085,  51.38857
   0.87211,  51.38571
   0.87336,  51.38285
   0.87462,  51.38000
   0.87588,  51.37714
   0.87713,  51.37428
   0.87839,  51.37143
   0.87965,  51.36858
   0.88090,  51.36573
   0.88216,  51.36288
   0.88342,  51.36003
   0.88467,  51.35719
   0.88593,  51.35434
   0.88719,  51.35150
   0.88844,  51.34866
   0.88970,  51.34582
   0.89096,  51.34298
   0.89221,  51.34015
   0.89347,  51.33731
   0.89473,  51.33448
   0.89598,  51.33165
   0.89724,  51.32881
   0.89850,  51.32599
   0.89975,  51.32316
   0.90101,  51.32033
   0.90227,  51.31751
   0.90352,  51.31468
   0.90478,  51.31186
   0.90604,  51.30904
   0.90729,  51.30622
   0.90855,  51.30341
   0.90981,  51.30059
   0.91106,  51.29778
   0.91232,  51.29496
   0.91358,  51.29215
   0.91483,  51.28934
   0.91609,  51.28654
   0.91735,  51.28373
   0.91860,  51.28092
   0.91986,  51.27812
   0.92111,  51.27532
   0.92237,  51.27252
   0.92363,  51.26972
   0.92488,  51.26692
   0.92614,  51.26412
   0.92740,  51.26133
   0.92865,  51.25854
   0.92991,  51.25574
   0.93117,  51.25295
   0.93242,  51.25016
   0.93368,  51.24738
   0.93494,  51.24459
   0.93619,  51.24181
   0.93745,  51.23902
   0.93871,  51.23624
   0.93996,  51.23346
   0.94122,  51.23068
   0.94248,  51.22790
   0.94373,  51.22513
   0.94499,  51.22235
   0.94625,  51.21958
   0.94750,  51.21681
   0.94876,  51.21404
   0.95002,  51.21127
   0.95127,  51.20850
   0.95253,  51.20574
   0.95379,  51.20297
   0.95504,  51.20021
   0.95630,  51.19745
   0.95756,  51.19469
   0.95881,  51.19193
   0.96007,  51.18917
   0.96133,  51.18642
   0.96258,  51.18366
   0.96384,  51.18091
   0.96510,  51.17816
   0.96635,  51.17541
   0.96761,  51.17266
   0.96887,  51.16991
   0.97012,  51.16717
   0.97138,  51.16442
   0.97264,  51.16168
   0.97389,  51.15894
   0.97515,  51.15620
   0.97641,  51.15346
   0.97766,  51.15072
   0.97892,  51.14798
   0.98018,  51.14525
   0.98143,  51.14252
   0.98269,  51.13979
   0.98395,  51.13705
   0.98520,  51.13433
   0.98646,  51.13160
   0.98772,  51.12887
   0.98897,  51.12615
   0.99023,  51.12342
   0.99149,  51.12070
   0.99274,  51.11798
   0.99400,  51.11526
   0.99526,  51.11255
   0.99651,  51.10983
   0.99777,  51.10711
   0.99903,  51.10440
   1.00028,  51.10169
   1.00154,  51.09898
   1.00280,  51.09627
   1.00405,  51.09356
   1.00531,  51.09085
   1.00657,  51.08815
   1.00782,  51.08545
   1.00908,  51.08274
   1.01034,  51.08004
   1.01159,  51.07734
   1.01285,  51.07464
   1.01411,  51.07195
   1.01536,  51.06925
   1.01662,  51.06656
   1.01788,  51.06386
   1.01913,  51.06117
   1.02039,  51.05848
   1.02165,  51.05579
   1.02290,  51.05311
   1.02416,  51.05042
   1.02542,  51.04774
   1.02667,  51.04505
   1.02793,  51.04237
   1.02919,  51.03969
   1.03044,  51.03701
   1.03170,  51.03433
   1.03296,  51.03166
   1.03421,  51.02898
   1.03547,  51.02631
   1.03673,  51.02364
   1.03798,  51.02097
   1.03924,  51.01830
   1.04050,  51.01563
   1.04175,  51.01296
   1.04301,  51.01029
   1.04427,  51.00763
   1.04552,  51.00497
   1.04678,  51.00231
   1.04804,  50.99965
   1.04929,  50.99699
   1.05055,  50.99433
   1.05181,  50.99167
   1.05306,  50.98902
   1.05432,  50.98636
   1.05558,  50.98371
   1.05683,  50.98106
   1.05809,  50.97841
   1.05935,  50.97576
   1.06060,  50.97312
   1.06186,  50.97047
   1.06311,  50.96783
   1.06437,  50.96518
   1.06563,  50.96254
   1.06688,  50.95990
   1.06814,  50.95726
   1.06940,  50.95463
   1.07065,  50.95199
   1.07191,  50.94935
   1.07317,  50.94672
   1.07442,  50.94409
   1.07568,  50.94146
   1.07694,  50.93883
   1.07819,  50.93620
   1.07945,  50.93357
   1.08071,  50.93095
   1.08196,  50.92832
   1.08322,  50.92570
   1.08448,  50.92308
   1.08573,  50.92046
   1.08699,  50.91784
   1.08825,  50.91522
   1.08950,  50.91260
   1.09076,  50.90999
   1.09202,  50.90737
   1.09327,  50.90476
   1.09453,  50.90215
   1.09579,  50.89954
   1.09704,  50.89693
   1.09830,  50.89432
   1.09956,  50.89172
   1.10081,  50.88911
   1.10207,  50.88651
   1.10333,  50.88391
   1.10458,  50.88130
   1.10584,  50.87870
   1.10710,  50.87611
   1.10835,  50.87351
   1.10961,  50.87091
   1.11087,  50.86832
   1.11212,  50.86572
   1.11338,  50.86313
   1.11464,  50.86054
   1.11589,  50.85795
   1.11715,  50.85536
   1.11841,  50.85278
   1.11966,  50.85019
   1.12092,  50.84761
   1.12218,  50.84502
   1.12343,  50.84244
   1.12469,  50.83986
   1.12595,  50.83728
   1.12720,  50.83470
   1.12846,  50.83213
   1.12972,  50.82955
   1.13097,  50.82698
   1.13223,  50.82440
   1.13349,  50.82183
   1.13474,  50.81926
   1.13600,  50.81669
   1.13726,  50.81412
   1.13851,  50.81156
   1.13977,  50.80899
   1.14103,  50.80643
   1.14228,  50.80386
   1.14354,  50.80130
   1.14480,  50.79874
   1.14605,  50.79618
   1.14731,  50.79362
   1.14857,  50.79107
   1.14982,  50.78851
   1.15108,  50.78596
   1.15234,  50.78341
   1.15359,  50.78085
   1.15485,  50.77830
   1.15611,  50.77575
   1.15736,  50.77321
   1.15862,  50.77066
   1.15988,  50.76811
   1.16113,  50.76557
   1.16239,  50.76303
   1.16365,  50.76048
   1.16490,  50.75794
   1.16616,  50.75540
   1.16742,  50.75287
   1.16867,  50.75033
   1.16993,  50.74779
   1.17119,  50.74526
   1.17244,  50.74273
   1.17370,  50.74019
   1.17496,  50.73766
   1.17621,  50.73513
   1.17747,  50.73260
   1.17873,  50.73008
   1.17998,  50.72755
   1.18124,  50.72503
   1.18250,  50.72250
   1.18375,  50.71998
   1.18501,  50.71746
   1.18627,  50.71494
   1.18752,  50.71242
   1.18878,  50.70990
   1.19004,  50.70739
   1.19129,  50.70487
   1.19255,  50.70236
   1.19381,  50.69985
   1.19506,  50.69734
   1.19632,  50.69483
   1.19758,  50.69232
   1.19883,  50.68981
   1.20009,  50.68730
   1.20135,  50.68480
   1.20260,  50.68229
   1.20386,  50.67979
   1.20511,  50.67729
   1.20637,  50.67479
   1.20763,  50.67229
   1.20888,  50.66979
   1.21014,  50.66729
   1.21140,  50.66480
   1.21265,  50.66230
   1.21391,  50.65981
   1.21517,  50.65732
   1.21642,  50.65483
   1.21768,  50.65234
   1.21894,  50.64985
   1.22019,  50.64736
   1.22145,  50.64487
   1.22271,  50.64239
   1.22396,  50.63991
   1.22522,  50.63742
   1.22648,  50.63494
   1.22773,  50.63246
   1.22899,  50.62998
   1.23025,  50.62750
   1.23150,  50.62503
   1.23276,  50.62255
   1.23402,  50.62008
   1.23527,  50.61760
   1.23653,  50.61513
   1.23779,  50.61266
   1.23904,  50.61019
   1.24030,  50.60772
   1.24156,  50.60526
   1.24281,  50.60279
   1.24407,  50.60032
   1.24533,  50.59786
   1.24658,  50.59540
   1.24784,  50.59294
   1.24910,  50.59048
   1.25035,  50.58802
   1.25161,  50.58556
   1.25287,  50.58310
   1.25412,  50.58065
   1.25538,  50.57819
   1.25664,  50.57574
   1.25789,  50.57329
   1.25915,  50.57084
   1.26041,  50.56839
   1.26166,  50.56594
   1.26292,  50.56349
   1.26418,  50.56104
   1.26543,  50.55860
   1.26669,  50.55615
   1.26795,  50.55371
   1.26920,  50.55127
   1.27046,  50.54883
   1.27172,  50.54639
   1.27297,  50.54395
   1.27423,  50.54151
   1.27549,  50.53908
   1.27674,  50.53664
   1.27800,  50.53421
   1.27926,  50.53177
   1.28051,  50.52934
   1.28177,  50.52691
   1.28303,  50.52448
   1.28428,  50.52205
   1.28554,  50.51963
   1.28680,  50.51720
   1.28805,  50.51478
   1.28931,  50.51235
   1.29057,  50.50993
   1.29182,  50.50751
   1.29308,  50.50509
   1.29434,  50.50267
   1.29559,  50.50025
   1.29685,  50.49784
   1.29811,  50.49542
   1.29936,  50.49300
   1.30062,  50.49059
   1.30188,  50.48818
   1.30313,  50.48577
   1.30439,  50.48336
   1.30565,  50.48095
   1.30690,  50.47854
   1.30816,  50.47613
   1.30942,  50.47373
   1.31067,  50.47132
   1.31193,  50.46892
   1.31319,  50.46652
   1.31444,  50.46412
   1.31570,  50.46172
   1.31696,  50.45932
   1.31821,  50.45692
   1.31947,  50.45452
   1.32073,  50.45213
   1.32198,  50.44973
   1.32324,  50.44734
   1.32450,  50.44495
   1.32575,  50.44256
   1.32701,  50.44017
   1.32827,  50.43778
   1.32952,  50.43539
   1.33078,  50.43300
   1.33204,  50.43062
   1.33329,  50.42823
   1.33455,  50.42585
   1.33581,  50.42347
   1.33706,  50.42108
   1.33832,  50.41870
   1.33958,  50.41633
   1.34083,  50.41395
   1.34209,  50.41157
   1.34335,  50.40919
   1.34460,  50.40682
   1.34586,  50.40445
   1.34711,  50.40207
   1.34837,  50.39970
   1.34963,  50.39733
   1.35088,  50.39496
   1.35214,  50.39259
   1.35340,  50.39023
   1.35465,  50.38786
   1.35591,  50.38550
   1.35717,  50.38313
   1.35842,  50.38077
   1.35968,  50.37841
   1.36094,  50.37605
   1.36219,  50.37369
   1.36345,  50.37133
   1.36471,  50.36897
   1.36596,  50.36661
   1.36722,  50.36426
   1.36848,  50.36191
   1.36973,  50.35955
   1.37099,  50.35720
   1.37225,  50.35485
   1.37350,  50.35250
   1.37476,  50.35015
   1.37602,  50.34780
   1.37727,  50.34546
   1.37853,  50.34311
   1.37979,  50.34077
   1.38104,  50.33842
   1.38230,  50.33608
   1.38356,  50.33374
   1.38481,  50.33140
   1.38607,  50.32906
   1.38733,  50.32672
   1.38858,  50.32438
   1.38984,  50.32205
   1.39110,  50.31971
   1.39235,  50.31738
   1.39361,  50.31505
   1.39487,  50.31271
   1.39612,  50.31038
   1.39738,  50.30805
   1.39864,  50.30572
   1.39989,  50.30340
   1.40115,  50.30107
   1.40241,  50.29874
   1.40366,  50.29642
   1.40492,  50.29410
   1.40618,  50.29177
   1.40743,  50.28945
   1.40869,  50.28713
   1.40995,  50.28481
   1.41120,  50.28250
   1.41246,  50.28018
   1.41372,  50.27786
   1.41497,  50.27555
   1.41623,  50.27323
   1.41749,  50.27092
   1.41874,  50.26861
   1.42000,  50.26630
   1.42126,  50.26399
   1.42251,  50.26168
   1.42377,  50.25937
   1.42503,  50.25706
   1.42628,  50.25476
   1.42754,  50.25245
   1.42880,  50.25015
   1.43005,  50.24785
   1.43131,  50.24555
   1.43257,  50.24325
   1.43382,  50.24095
   1.43508,  50.23865
   1.43634,  50.23635
   1.43759,  50.23405
   1.43885,  50.23176
   1.44011,  50.22946
   1.44136,  50.22717
   1.44262,  50.22488
   1.44388,  50.22259
   1.44513,  50.22030
   1.44639,  50.21801
   1.44765,  50.21572
   1.44890,  50.21343
   1.45016,  50.21114
   1.45142,  50.20886
   1.45267,  50.20658
   1.45393,  50.20429
   1.45519,  50.20201
   1.45644,  50.19973
   1.45770,  50.19745
   1.45896,  50.19517
   1.46021,  50.19289
   1.46147,  50.19061
   1.46273,  50.18834
   1.46398,  50.18606
   1.46524,  50.18379
   1.46650,  50.18152
   1.46775,  50.17924
   1.46901,  50.17697
   1.47027,  50.17470
   1.47152,  50.17243
   1.47278,  50.17017
   1.47404,  50.16790
   1.47529,  50.16563
   1.47655,  50.16337
   1.47781,  50.16110
   1.47906,  50.15884
   1.48032,  50.15658
   1.48158,  50.15432
   1.48283,  50.15206
   1.48409,  50.14980
   1.48535,  50.14754
   1.48660,  50.14528
   1.48786,  50.14303
   1.48911,  50.14077
   1.49037,  50.13852
   1.49163,  50.13626
   1.49288,  50.13401
   1.49414,  50.13176
   1.49540,  50.12951
   1.49665,  50.12726
   1.49791,  50.12501
   1.49917,  50.12277
   1.50042,  50.12052
   1.50168,  50.11828
   1.50294,  50.11603
   1.50419,  50.11379
   1.50545,  50.11155
   1.50671,  50.10930
   1.50796,  50.10706
   1.50922,  50.10482
   1.51048,  50.10259
   1.51173,  50.10035
   1.51299,  50.09811
   1.51425,  50.09588
   1.51550,  50.09364
   1.51676,  50.09141
   1.51802,  50.08918
   1.51927,  50.08695
   1.52053,  50.08472
   1.52179,  50.08249
   1.52304,  50.08026
   1.52430,  50.07803
   1.52556,  50.07580
   1.52681,  50.07358
   1.52807,  50.07135
   1.52933,  50.06913
   1.53058,  50.06691
   1.53184,  50.06468
   1.53310,  50.06246
   1.53435,  50.06024
   1.53561,  50.05802
   1.53687,  50.05581
   1.53812,  50.05359
   1.53938,  50.05137
   1.54064,  50.04916
   1.54189,  50.04694
   1.54315,  50.04473
   1.54441,  50.04252
   1.54566,  50.04031
   1.54692,  50.03810
   1.54818,  50.03589
   1.54943,  50.03368
   1.55069,  50.03147
   1.55195,  50.02927
   1.55320,  50.02706
   1.55446,  50.02486
   1.55572,  50.02265
   1.55697,  50.02045
   1.55823,  50.01825
   1.55949,  50.01605
   1.56074,  50.01385
   1.56200,  50.01165
   1.56326,  50.00945
   1.56451,  50.00725
   1.56577,  50.00506
   1.56703,  50.00286
   1.56828,  50.00067
   1.56954,  49.99848
   1.57080,  49.99628
   1.57205,  49.99900
   1.57331,  50.00628
   1.57457,  50.01778
   1.57582,  50.03322
   1.57708,  50.05233
   1.57834,  50.07487
   1.57959,  50.10063
   1.58085,  50.12942
   1.58211,  50.16104
   1.58336,  50.19535
   1.58462,  50.23218
   1.58588,  50.27141
   1.58713,  50.31292
   1.58839,  50.35659
   1.58965,  50.40231
   1.59090,  50.44999
   1.59216,  50.49955
   1.59342,  50.55090
   1.59467,  50.60396
   1.59593,  50.65868
   1.59719,  50.71497
   1.59844,  50.77279
   1.59970,  50.83207
   1.60096,  50.89277
   1.60221,  50.95484
   1.60347,  51.01823
   1.60473,  51.08290
   1.60598,  51.14880
   1.60724,  51.21591
   1.60850,  51.28417
   1.60975,  51.35358
   1.61101,  51.42407
   1.61227,  51.49564
   1.61352,  51.56825
   1.61478,  51.64187
   1.61604,  51.71648
   1.61729,  51.79204
   1.61855,  51.86855
   1.61981,  51.94597
   1.62106,  52.02428
   1.62232,  52.10346
   1.62358,  52.18350
   1.62483,  52.26437
   1.62609,  52.34605
   1.62735,  52.42852
   1.62860,  52.51177
   1.62986,  52.59579
   1.63111,  52.68055
   1.63237,  52.76603
   1.63363,  52.85223
   1.63488,  52.93913
   1.63614,  53.02671
   1.63740,  53.11496
   1.63865,  53.20386
   1.63991,  53.29341
   1.64117,  53.38358
   1.64242,  53.47437
   1.64368,  53.56577
   1.64494,  53.65775
   1.64619,  53.75032
   1.64745,  53.84345
   1.64871,  53.93714
   1.64996,  54.03138
   1.65122,  54.12614
   1.65248,  54.22144
   1.65373,  54.31724
   1.65499,  54.41355
   1.65625,  54.51035
   1.65750,  54.60763
   1.65876,  54.70538
   1.66002,  54.80360
   1.66127,  54.90227
   1.66253,  55.00138
   1.66379,  55.10093
   1.66504,  55.20090
   1.66630,  55.30129
   1.66756,  55.40209
   1.66881,  55.50329
   1.67007,  55.60488
   1.67133,  55.70685
   1.67258,  55.80919
   1.67384,  55.91190
   1.67510,  56.01497
   1.67635,  56.11839
   1.67761,  56.22215
   1.67887,  56.32625
   1.68012,  56.43067
   1.68138,  56.53541
   1.68264,  56.64047
   1.68389,  56.74583
   1.68515,  56.85148
   1.68641,  56.95743
   1.68766,  57.06366
   1.68892,  57.17016
   1.69018,  57.27693
   1.69143,  57.38397
   1.69269,  57.49126
   1.69395,  57.59880
   1.69520,  57.70658
   1.69646,  57.81460
   1.69772,  57.92285
   1.69897,  58.03132
   1.70023,  58.14001
   1.70149,  58.24890
   1.70274,  58.35800
   1.70400,  58.46730
   1.70526,  58.57679
   1.70651,  58.68647
   1.70777,  58.79633
   1.70903,  58.90636
   1.71028,  59.01656
   1.71154,  59.12692
   1.71280,  59.23744
   1.71405,  59.34811
   1.71531,  59.45893
   1.71657,  59.56989
   1.71782,  59.68098
   1.71908,  59.79220
   1.72034,  59.90355
   1.72159,  60.01502
   1.72285,  60.12660
   1.72411,  60.23828
   1.72536,  60.35008
   1.72662,  60.46197
   1.72788,  60.57395
   1.72913,  60.68602
   1.73039,  60.79818
   1.73165,  60.91042
   1.73290,  61.02273
   1.73416,  61.13511
   1.73542,  61.24755
   1.73667,  61.36006
   1.73793,  61.47262
   1.73919,  61.58523
   1.74044,  61.69789
   1.74170,  61.81059
   1.74296,  61.92333
   1.74421,  62.03610
   1.74547,  62.14890
   1.74673,  62.26173
   1.74798,  62.37457
   1.74924,  62.48744
   1.75050,  62.60032
   1.75175,  62.71320
   1.75301,  62.82609
   1.75427,  62.93898
   1.75552,  63.05187
   1.75678,  63.16475
   1.75804,  63.27762
   1.75929,  63.39048
   1.76055,  63.50332
   1.76181,  63.61613
   1.76306,  63.72892
   1.76432,  63.84168
   1.76558,  63.95441
   1.76683,  64.06710
   1.76809,  64.17976
   1.76935,  64.29236
   1.77060,  64.40493
   1.77186,  64.51744
   1.77311,  64.62990
   1.77437,  64.74230
   1.77563,  64.85465
   1.77688,  64.96693
   1.77814,  65.07914
   1.77940,  65.19129
   1.78065,  65.30337
   1.78191,  65.41537
   1.78317,  65.52729
   1.78442,  65.63913
   1.78568,  65.75089
   1.78694,  65.86256
   1.78819,  65.97414
   1.78945,  66.08563
   1.79071,  66.19703
   1.79196,  66.30833
   1.79322,  66.41953
   1.79448,  66.53062
   1.79573,  66.64161
   1.79699,  66.75250
   1.79825,  66.86327
   1.79950,  66.97393
   1.80076,  67.08448
   1.80202,  67.19491
   1.80327,  67.30521
   1.80453,  67.41540
   1.80579,  67.52546
   1.80704,  67.63540
   1.80830,  67.74521
   1.80956,  67.85488
   1.81081,  67.96443
   1.81207,  68.07384
   1.81333,  68.18311
   1.81458,  68.29224
   1.81584,  68.40123
   1.81710,  68.51008
   1.81835,  68.61878
   1.81961,  68.72734
   1.82087,  68.83575
   1.82212,  68.94400
   1.82338,  69.05211
   1.82464,  69.16006
   1.82589,  69.26786
   1.82715,  69.37549
   1.82841,  69.48297
   1.82966,  69.59029
   1.83092,  69.69745
   1.83218,  69.80444
   1.83343,  69.91127
   1.83469,  70.01793
   1.83595,  70.12442
   1.83720,  70.23074
   1.83846,  70.33689
   1.83972,  70.44287
   1.84097,  70.54867
   1.84223,  70.65430
   1.84349,  70.75976
   1.84474,  70.86503
   1.84600,  70.97013
   1.84726,  71.07504
   1.84851,  71.17978
   1.84977,  71.28433
   1.85103,  71.38870
   1.85228,  71.49288
   1.85354,  71.59688
   1.85480,  71.70069
   1.85605,  71.80431
   1.85731,  71.90774
   1.85857,  72.01099
   1.85982,  72.11404
   1.86108,  72.21690
   1.86234,  72.31957
   1.86359,  72.42204
   1.86485,  72.52432
   1.86611,  72.62641
   1.86736,  72.72830
   1.86862,  72.82999
   1.86988,  72.93148
   1.87113,  73.03278
   1.87239,  73.13388
   1.87365,  73.23477
   1.87490,  73.33547
   1.87616,  73.43597
   1.87742,  73.53626
   1.87867,  73.63635
   1.87993,  73.73624
   1.88119,  73.83592
   1.88244,  73.93541
   1.88370,  74.03468
   1.88496,  74.13375
   1.88621,  74.23262
   1.88747,  74.33128
   1.88873,  74.42973
   1.88998,  74.52798
   1.89124,  74.62602
   1.89250,  74.72385
   1.89375,  74.82147
   1.89501,  74.91889
   1.89627,  75.01609
   1.89752,  75.11309
   1.89878,  75.20988
   1.90004,  75.30646
   1.90129,  75.40282
   1.90255,  75.49898
   1.90381,  75.59493
   1.90506,  75.69066
   1.90632,  75.78619
   1.90758,  75.88150
   1.90883,  75.97661
   1.91009,  76.07150
   1.91135,  76.16618
   1.91260,  76.26064
   1.91386,  76.35490
   1.91511,  76.44894
   1.91637,  76.54277
   1.91763,  76.63639
   1.91888,  76.72980
   1.92014,  76.82299
   1.92140,  76.91597
   1.92265,  77.00874
   1.92391,  77.10130
   1.92517,  77.19365
   1.92642,  77.28578
   1.92768,  77.37770
   1.92894,  77.46940
   1.93019,  77.56090
   1.93145,  77.65218
   1.93271,  77.74325
   1.93396,  77.83411
   1.93522,  77.92475
   1.93648,  78.01518
   1.93773,  78.10541
   1.93899,  78.19541
   1.94025,  78.28521
   1.94150,  78.37480
   1.94276,  78.46417
   1.94402,  78.55333
   1.94527,  78.64229
   1.94653,  78.73103
   1.94779,  78.81956
   1.94904,  78.90788
   1.95030,  78.99598
   1.95156,  79.08388
   1.95281,  79.17157
   1.95407,  79.25905
   1.95533,  79.34632
   1.95658,  79.43338
   1.95784,  79.52023
   1.95910,  79.60687
   1.96035,  79.69330
   1.96161,  79.77952
   1.96287,  79.86554
   1.96412,  79.95135
   1.96538,  80.03695
   1.96664,  80.12234
   1.96789,  80.20753
   1.96915,  80.29251
   1.97041,  80.37728
   1.97166,  80.46185
   1.97292,  80.54621
   1.97418,  80.63036
   1.97543,  80.71431
   1.97669,  80.79806
   1.97795,  80.88160
   1.97920,  80.96494
   1.98046,  81.04807
   1.98172,  81.13100
   1.98297,  81.21373
   1.98423,  81.29625
   1.98549,  81.37857
   1.98674,  81.46069
   1.98800,  81.54261
   1.98926,  81.62433
   1.99051,  81.70584
   1.99177,  81.78716
   1.99303,  81.86827
   1.99428,  81.94919
   1.99554,  82.02990
   1.99680,  82.11042
   1.99805,  82.19074
   1.99931,  82.27086
   2.00057,  82.35078
   2.00182,  82.43051
   2.00308,  82.51004
   2.00434,  82.58937
   2.00559,  82.66851
   2.00685,  82.74745
   2.00811,  82.82620
   2.00936,  82.90475
   2.01062,  82.98311
   2.01188,  83.06127
   2.01313,  83.13924
   2.01439,  83.21702
   2.01565,  83.29460
   2.01690,  83.37199
   2.01816,  83.44919
   2.01942,  83.52620
   2.02067,  83.60302
   2.02193,  83.67965
   2.02319,  83.75609
   2.02444,  83.83234
   2.02570,  83.90840
   2.02696,  83.98427
   2.02821,  84.05996
   2.02947,  84.13545
   2.03073,  84.21076
   2.03198,  84.28589
   2.03324,  84.36082
   2.03450,  84.43558
   2.03575,  84.51014
   2.03701,  84.58452
   2.03827,  84.65872
   2.03952,  84.73273
   2.04078,  84.80656
   2.04204,  84.88021
   2.04329,  84.95368
   2.04455,  85.02696
   2.04581,  85.10006
   2.04706,  85.17298
   2.04832,  85.24572
   2.04958,  85.31828
   2.05083,  85.39066
   2.05209,  85.46286
   2.05335,  85.53489
   2.05460,  85.60673
   2.05586,  85.67840
   2.05711,  85.74989
   2.05837,  85.82120
   2.05963,  85.89234
   2.06088,  85.96330
   2.06214,  86.03409
   2.06340,  86.10470
   2.06465,  86.17514
   2.06591,  86.24540
   2.06717,  86.31549
   2.06842,  86.38541
   2.06968,  86.45515
   2.07094,  86.52473
   2.07219,  86.59413
   2.07345,  86.66336
   2.07471,  86.73242
   2.07596,  86.80131
   2.07722,  86.87003
   2.07848,  86.93858
   2.07973,  87.00697
   2.08099,  87.07518
   2.08225,  87.14323
   2.08350,  87.21111
   2.08476,  87.27882
   2.08602,  87.34637
   2.08727,  87.41375
   2.08853,  87.48097
   2.08979,  87.54802
   2.09104,  87.61491
   2.09230,  87.68163
   2.09356,  87.74819
   2.09481,  87.81459
   2.09607,  87.88082
   2.09733,  87.94690
   2.09858,  88.01281
   2.09984,  88.07856
   2.10110,  88.14415
   2.10235,  88.20958
   2.10361,  88.27484
   2.10487,  88.33995
   2.10612,  88.40491
   2.10738,  88.46970
   2.10864,  88.53433
   2.10989,  88.59881
   2.11115,  88.66313
   2.11241,  88.72730
   2.11366,  88.79131
   2.11492,  88.85516
   2.11618,  88.91886
   2.11743,  88.98240
   2.11869,  89.04579
   2.11995,  89.10902
   2.12120,  89.17210
   2.12246,  89.23503
   2.12372,  89.29781
   2.12497,  89.36043
   2.12623,  89.42291
   2.12749,  89.48523
   2.12874,  89.54740
   2.13000,  89.60942
   2.13126,  89.67129
   2.13251,  89.73301
   2.13377,  89.79458
   2.13503,  89.85600
   2.13628,  89.91728
   2.13754,  89.97841
   2.13880,  90.03939
   2.14005,  90.10022
   2.14131,  90.16091
   2.14257,  90.22145
   2.14382,  90.28184
   2.14508,  90.34209
   2.14634,  90.40220
   2.14759,  90.46216
   2.14885,  90.52198
   2.15011,  90.58165
   2.15136,  90.64118
   2.15262,  90.70057
   2.15388,  90.75982
   2.15513,  90.81892
   2.15639,  90.87788
   2.15765,  90.93670
   2.15890,  90.99539
   2.16016,  91.05393
   2.16142,  91.11233
   2.16267,  91.17059
   2.16393,  91.22871
   2.16519,  91.28670
   2.16644,  91.34454
   2.16770,  91.40225
   2.16896,  91.45982
   2.17021,  91.51725
   2.17147,  91.57455
   2.17273,  91.63171
   2.17398,  91.68874
   2.17524,  91.74563
   2.17650,  91.80238
   2.17775,  91.85900
   2.17901,  91.91549
   2.18027,  91.97184
   2.18152,  92.02806
   2.18278,  92.08414
   2.18404,  92.14009
   2.18529,  92.19591
   2.18655,  92.25160
   2.18781,  92.30716
   2.18906,  92.36258
   2.19032,  92.41788
   2.19158,  92.47304
   2.19283,  92.52807
   2.19409,  92.58298
   2.19535,  92.63775
   2.19660,  92.69240
   2.19786,  92.74691
   2.19911,  92.80130
   2.20037,  92.85556
   2.20163,  92.90969
   2.20288,  92.96370
   2.20414,  93.01758
   2.20540,  93.07133
   2.20665,  93.12495
   2.20791,  93.17845
   2.20917,  93.23183
   2.21042,  93.28508
   2.21168,  93.33820
   2.21294,  93.39120
   2.21419,  93.44408
   2.21545,  93.49683
   2.21671,  93.54946
   2.21796,  93.60196
   2.21922,  93.65434
   2.22048,  93.70660
   2.22173,  93.75874
   2.22299,  93.81076
   2.22425,  93.86265
   2.22550,  93.91443
   2.22676,  93.96608
   2.22802,  94.01761
   2.22927,  94.06903
   2.23053,  94.12032
   2.23179,  94.17149
   2.23304,  94.22255
   2.23430,  94.27348
   2.23556,  94.32430
   2.23681,  94.37500
   2.23807,  94.42558
   2.23933,  94.47605
   2.24058,  94.52639
   2.24184,  94.57662
   2.24310,  94.62674
   2.24435,  94.67673
   2.24561,  94.72661
   2.24687,  94.77638
   2.24812,  94.82603
   2.24938,  94.87556
   2.25064,  94.92498
   2.25189,  94.97429
   2.25315,  95.02348
   2.25441,  95.07256
   2.25566,  95.12153
   2.25692,  95.17038
   2.25818,  95.21912
   2.25943,  95.26774
   2.26069,  95.31626
   2.26195,  95.36466
   2.26320,  95.41295
   2.26446,  95.46113
   2.26572,  95.50919
   2.26697,  95.55715
   2.26823,  95.60500
   2.26949,  95.65273
   2.27074,  95.70036
   2.27200,  95.74787
   2.27326,  95.79528
   2.27451,  95.84258
   2.27577,  95.88977
   2.27703,  95.93685
   2.27828,  95.98382
   2.27954,  96.03068
   2.28080,  96.07744
   2.28205,  96.12409
   2.28331,  96.17063
   2.28457,  96.21706
   2.28582,  96.26339
   2.28708,  96.30961
   2.28834,  96.35573
   2.28959,  96.40174
   2.29085,  96.44764
   2.29211,  96.49344
   2.29336,  96.53914
   2.29462,  96.58473
   2.29588,  96.63021
   2.29713,  96.67559
   2.29839,  96.72087
   2.29965,  96.76604
   2.30090,  96.81111
   2.30216,  96.85607
   2.30342,  96.90094
   2.30467,  96.94570
   2.30593,  96.99036
   2.30719,  97.03491
   2.30844,  97.07936
   2.30970,  97.12372
   2.31096,  97.16797
   2.31221,  97.21212
   2.31347,  97.25616
   2.31473,  97.30011
   2.31598,  97.34396
   2.31724,  97.38771
   2.31850,  97.43135
   2.31975,  97.47490
   2.32101,  97.51835
   2.32227,  97.56170
   2.32352,  97.60495
   2.32478,  97.64810
   2.32604,  97.69115
   2.32729,  97.73410
   2.32855,  97.77696
   2.32981,  97.81972
   2.33106,  97.86238
   2.33232,  97.90494
   2.33358,  97.94740
   2.33483,  97.98977
   2.33609,  98.03205
   2.33734,  98.07422
   2.33860,  98.11630
   2.33986,  98.15828
   2.34111,  98.20017
   2.34237,  98.24196
   2.34363,  98.28366
   2.34488,  98.32526
   2.34614,  98.36677
   2.34740,  98.40818
   2.34865,  98.44950
   2.34991,  98.49072
   2.35117,  98.53185
   2.35242,  98.57288
   2.35368,  98.61383
   2.35494,  98.65467
   2.35619,  98.69543
   2.35745,  98.73609
   2.35871,  98.77666
   2.35996,  98.81714
   2.36122,  98.85752
   2.36248,  98.89781
   2.36373,  98.93801
   2.36499,  98.97812
   2.36625,  99.01814
   2.36750,  99.05807
   2.36876,  99.09790
   2.37002,  99.13764
   2.37127,  99.17730
   2.37253,  99.21686
   2.37379,  99.25633
   2.37504,  99.29572
   2.37630,  99.33501
   2.37756,  99.37421
   2.37881,  99.41332
   2.38007,  99.45235
   2.38133,  99.49128
   2.38258,  99.53013
   2.38384,  99.56888
   2.38510,  99.60755
   2.38635,  99.64613
   2.38761,  99.68462
   2.38887,  99.72303
   2.39012,  99.76135
   2.39138,  99.79957
   2.39264,  99.83771
   2.39389,  99.87577
   2.39515,  99.91374
   2.39641,  99.95162
   2.39766,  99.98941
   2.39892, 100.02712
   2.40018, 100.06474
   2.40143, 100.10227
   2.40269, 100.13972
   2.40395, 100.17708
   2.40520, 100.21436
   2.40646, 100.25155
   2.40772, 100.28866
   2.40897, 100.32568
   2.41023, 100.36262
   2.41149, 100.39947
   2.41274, 100.43624
   2.41400, 100.47292
   2.41526, 100.50952
   2.41651, 100.54603
   2.41777, 100.58246
   2.41903, 100.61881
   2.42028, 100.65508
   2.42154, 100.69126
   2.42280, 100.72735
   2.42405, 100.76337
   2.42531, 100.79930
   2.42657, 100.83515
   2.42782, 100.87092
   2.42908, 100.90660
   2.43034, 100.94220
   2.43159, 100.97772
   2.43285, 101.01316
   2.43411, 101.04852
   2.43536, 101.08379
   2.43662, 101.11899
   2.43788, 101.15410
   2.43913, 101.18913
   2.44039, 101.22408
   2.44165, 101.25895
   2.44290, 101.29374
   2.44416, 101.32845
   2.44542, 101.36308
   2.44667, 101.39763
   2.44793, 101.43210
   2.44919, 101.46649
   2.45044, 101.50080
   2.45170, 101.53503
   2.45296, 101.56918
   2.45421, 101.60325
   2.45547, 101.63724
   2.45673, 101.67116
   2.45798, 101.70499
   2.45924, 101.73875
   2.46050, 101.77243
   2.46175, 101.80603
   2.46301, 101.83955
   2.46427, 101.87299
   2.46552, 101.90636
   2.46678, 101.93965
   2.46804, 101.97286
   2.46929, 102.00599
   2.47055, 102.03905
   2.47181, 102.07203
   2.47306, 102.10493
   2.47432, 102.13776
   2.47558, 102.17050
   2.47683, 102.20318
   2.47809, 102.23577
   2.47934, 102.26829
   2.48060, 102.30073
   2.48186, 102.33310
   2.48311, 102.36539
   2.48437, 102.39761
   2.48563, 102.42975
   2.48688, 102.46181
   2.48814, 102.49380
   2.48940, 102.52572
   2.49065, 102.55756
   2.49191, 102.58932
   2.49317, 102.62101
   2.49442, 102.65263
   2.49568, 102.68417
   2.49694, 102.71563
   2.49819, 102.74703
   2.49945, 102.77834
   2.50071, 102.80959
   2.50196, 102.84076
   2.50322, 102.87185
   2.50448, 102.90288
   2.50573, 102.93383
   2.50699, 102.96470
   2.50825, 102.99551
   2.50950, 103.02624
   2.51076, 103.05689
   2.51202, 103.08748
   2.51327, 103.11799
   2.51453, 103.14843
   2.51579, 103.17879
   2.51704, 103.20909
   2.51830, 103.23931
   2.51956, 103.26946
   2.52081, 103.29953
   2.52207, 103.32954
   2.52333, 103.35947
   2.52458, 103.38934
   2.52584, 103.41913
   2.52710, 103.44885
   2.52835, 103.47850
   2.52961, 103.50807
   2.53087, 103.53758
   2.53212, 103.56701
   2.53338, 103.59638
   2.53464, 103.62567
   2.53589, 103.65490
   2.53715, 103.68405
   2.53841, 103.71313
   2.53966, 103.74214
   2.54092, 103.77108
   2.54218, 103.79996
   2.54343, 103.82876
   2.54469, 103.85749
   2.54595, 103.88615
   2.54720, 103.91475
   2.54846, 103.94327
   2.54972, 103.97173
   2.55097, 104.00011
   2.55223, 104.02843
   2.55349, 104.05667
   2.55474, 104.08485
   2.55600, 104.11296
   2.55726, 104.14100
   2.55851, 104.16898
   2.55977, 104.19688
   2.56103, 104.22472
   2.56228, 104.25248
   2.56354, 104.28018
   2.56480, 104.30781
   2.56605, 104.33538
   2.56731, 104.36287
   2.56857, 104.39030
   2.56982, 104.41766
   2.57108, 104.44495
   2.57234, 104.47218
   2.57359, 104.49933
   2.57485, 104.52643
   2.57611, 104.55345
   2.57736, 104.58041
   2.57862, 104.60729
   2.57988, 104.63412
   2.58113, 104.66087
   2.58239, 104.68756
   2.58365, 104.71419
   2.58490, 104.74074
   2.58616, 104.76723
   2.58742, 104.79366
   2.58867, 104.82001
   2.58993, 104.84631
   2.59119, 104.87253
   2.59244, 104.89869
   2.59370, 104.92479
   2.59496, 104.95082
   2.59621, 104.97678
   2.59747, 105.00268
   2.59873, 105.02851
   2.59998, 105.05428
   2.60124, 105.07998
   2.60250, 105.10562
   2.60375, 105.13119
   2.60501, 105.15669
   2.60627, 105.18214
   2.60752, 105.20751
   2.60878, 105.23283
   2.61004, 105.25807
   2.61129, 105.28326
   2.61255, 105.30838
   2.61381, 105.33343
   2.61506, 105.35842
   2.61632, 105.38335
   2.61758, 105.40821
   2.61883, 105.43301
   2.62009, 105.45775
   2.62134, 105.48242
   2.62260, 105.50703
   2.62386, 105.53157
   2.62511, 105.55605
   2.62637, 105.58047
   2.62763, 105.60483
   2.62888, 105.62912
   2.63014, 105.65334
   2.63140, 105.67751
   2.63265, 105.70161
   2.63391, 105.72565
   2.63517, 105.74963
   2.63642, 105.77354
   2.63768, 105.79739
   2.63894, 105.82118
   2.64019, 105.84491
   2.64145, 105.86857
   2.64271, 105.89217
   2.64396, 105.91571
   2.64522, 105.93919
   2.64648, 105.96260
   2.64773, 105.98595
   2.64899, 106.00924
   2.65025, 106.03247
   2.65150, 106.05564
   2.65276, 106.07875
   2.65402, 106.10179
   2.65527, 106.12477
   2.65653, 106.14769
   2.65779, 106.17055
   2.65904, 106.19335
   2.66030, 106.21609
   2.66156, 106.23877
   2.66281, 106.26138
   2.66407, 106.28394
   2.66533, 106.30643
   2.66658, 106.32886
   2.66784, 106.35123
   2.66910, 106.37354
   2.67035, 106.39579
   2.67161, 106.41799
   2.67287, 106.44011
   2.67412, 106.46218
   2.67538, 106.48419
   2.67664, 106.50614
   2.67789, 106.52803
   2.67915, 106.54986
   2.68041, 106.57163
   2.68166, 106.59334
   2.68292, 106.61498
   2.68418, 106.63657
   2.68543, 106.65810
   2.68669, 106.67957
   2.68795, 106.70098
   2.68920, 106.72233
   2.69046, 106.74362
   2.69172, 106.76486
   2.69297, 106.78603
   2.69423, 106.80714
   2.69549, 106.82820
   2.69674, 106.84919
   2.69800, 106.87013
   2.69926, 106.89100
   2.70051, 106.91182
   2.70177, 106.93258
   2.70303, 106.95328
   2.70428, 106.97392
   2.70554, 106.99451
   2.70680, 107.01503
   2.70805, 107.03550
   2.70931, 107.05591
   2.71057, 107.07625
   2.71182, 107.09655
   2.71308, 107.11678
   2.71434, 107.13695
   2.71559, 107.15707
   2.71685, 107.17713
   2.71811, 107.19713
   2.71936, 107.21707
   2.72062, 107.23696
   2.72188, 107.25678
   2.72313, 107.27655
   2.72439, 107.29627
   2.72565, 107.31592
   2.72690, 107.33552
   2.72816, 107.35506
   2.72942, 107.37454
   2.73067, 107.39396
   2.73193, 107.41333
   2.73319, 107.43264
   2.73444, 107.45189
   2.73570, 107.47109
   2.73696, 107.49023
   2.73821, 107.50931
   2.73947, 107.52833
   2.74073, 107.54730
   2.74198, 107.56621
   2.74324, 107.58507
   2.74450, 107.60387
   2.74575, 107.62261
   2.74701, 107.64129
   2.74827, 107.65992
   2.74952, 107.67849
   2.75078, 107.69701
   2.75204, 107.71547
   2.75329, 107.73387
   2.75455, 107.75222
   2.75581, 107.77051
   2.75706, 107.78874
   2.75832, 107.80692
   2.75958, 107.82504
   2.76083, 107.84311
   2.76209, 107.86112
   2.76334, 107.87907
   2.76460, 107.89697
   2.76586, 107.91481
   2.76711, 107.93260
   2.76837, 107.95033
   2.76963, 107.96801
   2.77088, 107.98563
   2.77214, 108.00320
   2.77340, 108.02071
   2.77465, 108.03816
   2.77591, 108.05556
   2.77717, 108.07290
   2.77842, 108.09019
   2.77968, 108.10743
   2.78094, 108.12461
   2.78219, 108.14173
   2.78345, 108.15880
   2.78471, 108.17581
   2.78596, 108.19277
   2.78722, 108.20968
   2.78848, 108.22653
   2.78973, 108.24332
   2.79099, 108.26006
   2.79225, 108.27675
   2.79350, 108.29338
   2.79476, 108.30996
   2.79602, 108.32648
   2.79727, 108.34295
   2.79853, 108.35936
   2.79979, 108.37572
   2.80104, 108.39202
   2.80230, 108.40827
   2.80356, 108.42447
   2.80481, 108.44061
   2.80607, 108.45670
   2.80733, 108.47273
   2.80858, 108.48871
   2.80984, 108.50464
   2.81110, 108.52051
   2.81235, 108.53633
   2.81361, 108.55210
   2.81487, 108.56781
   2.81612, 108.58347
   2.81738, 108.59907
   2.81864, 108.61462
   2.81989, 108.63012
   2.82115, 108.64556
   2.82241, 108.66095
   2.82366, 108.67629
   2.82492, 108.69157
   2.82618, 108.70680
   2.82743, 108.72198
   2.82869, 108.73710
   2.82995, 108.75217
   2.83120, 108.76719
   2.83246, 108.78215
   2.83372, 108.79706
   2.83497, 108.81192
   2.83623, 108.82672
   2.83749, 108.84148
   2.83874, 108.85618
   2.84000, 108.87082
   2.84126, 108.88541
   2.84251, 108.89996
   2.84377, 108.91444
   2.84503, 108.92888
   2.84628, 108.94326
   2.84754, 108.95759
   2.84880, 108.97187
   2.85005, 108.98610
   2.85131, 109.00027
   2.85257, 109.01439
   2.85382, 109.02846
   2.85508, 109.04247
   2.85634, 109.05644
   2.85759, 109.07035
   2.85885, 109.08421
   2.86011, 109.09801
   2.86136, 109.11177
   2.86262, 109.12547
   2.86388, 109.13912
   2.86513, 109.15272
   2.86639, 109.16627
   2.86765, 109.17976
   2.86890, 109.19320
   2.87016, 109.20659
   2.87142, 109.21993
   2.87267, 109.23322
   2.87393, 109.24646
   2.87519, 109.25964
   2.87644, 109.27277
   2.87770, 109.28585
   2.87896, 109.29888
   2.88021, 109.31186
   2.88147, 109.32479
   2.88273, 109.33766
   2.88398, 109.35048
   2.88524, 109.36326
   2.88650, 109.37598
   2.88775, 109.38865
   2.88901, 109.40126
   2.89027, 109.41383
   2.89152, 109.42635
   2.89278, 109.43881
   2.89404, 109.45122
   2.89529, 109.46359
   2.89655, 109.47590
   2.89781, 109.48816
   2.89906, 109.50037
   2.90032, 109.51253
   2.90158, 109.52463
   2.90283, 109.53669
   2.90409, 109.54869
   2.90534, 109.56065
   2.90660, 109.57255
   2.90786, 109.58441
   2.90911, 109.59621
   2.91037, 109.60796
   2.91163, 109.61966
   2.91288, 109.63131
   2.91414, 109.64291
   2.91540, 109.65446
   2.91665, 109.66596
   2.91791, 109.67741
   2.91917, 109.68881
   2.92042, 109.70016
   2.92168, 109.71145
   2.92294, 109.72270
   2.92419, 109.73390
   2.92545, 109.74504
   2.92671, 109.75614
   2.92796, 109.76719
   2.92922, 109.77818
   2.93048, 109.78913
   2.93173, 109.80002
   2.93299, 109.81087
   2.93425, 109.82166
   2.93550, 109.83241
   2.93676, 109.84311
   2.93802, 109.85375
   2.93927, 109.86435
   2.94053, 109.87489
   2.94179, 109.88539
   2.94304, 109.89583
   2.94430, 109.90623
   2.94556, 109.91658
   2.94681, 109.92687
   2.94807, 109.93712
   2.94933, 109.94732
   2.95058, 109.95747
   2.95184, 109.96756
   2.95310, 109.97761
   2.95435, 109.98761
   2.95561, 109.99756
   2.95687, 110.00746
   2.95812, 110.01731
   2.95938, 110.02711
   2.96064, 110.03686
   2.96189, 110.04657
   2.96315, 110.05622
   2.96441, 110.06582
   2.96566, 110.07538
   2.96692, 110.08488
   2.96818, 110.09434
   2.96943, 110.10374
   2.97069, 110.11310
   2.97195, 110.12241
   2.97320, 110.13167
   2.97446, 110.14088
   2.97572, 110.15004
   2.97697, 110.15915
   2.97823, 110.16821
   2.97949, 110.17722
   2.98074, 110.18619
   2.98200, 110.19510
   2.98326, 110.20397
   2.98451, 110.21279
   2.98577, 110.22156
   2.98703, 110.23028
   2.98828, 110.23895
   2.98954, 110.24757
   2.99080, 110.25615
   2.99205, 110.26467
   2.99331, 110.27315
   2.99457, 110.28157
   2.99582, 110.28995
   2.99708, 110.29828
   2.99834, 110.30656
   2.99959, 110.31480
   3.00085, 110.32298
   3.00211, 110.33112
   3.00336, 110.33921
   3.00462, 110.34724
   3.00588, 110.35523
   3.00713, 110.36318
   3.00839, 110.37107
   3.00965, 110.37891
   3.01090, 110.38671
   3.01216, 110.39446
   3.01342, 110.40216
   3.01467, 110.40981
   3.01593, 110.41741
   3.01719, 110.42497
   3.01844, 110.43248
   3.01970, 110.43993
   3.02096, 110.44735
   3.02221, 110.45471
   3.02347, 110.46202
   3.02473, 110.46929
   3.02598, 110.47651
   3.02724, 110.48367
   3.02850, 110.49080
   3.02975, 110.49787
   3.03101, 110.50490
   3.03227, 110.51187
   3.03352, 110.51880
   3.03478, 110.52568
   3.03604, 110.53252
   3.03729, 110.53930
   3.03855, 110.54604
   3.03981, 110.55273
   3.04106, 110.55937
   3.04232, 110.56597
   3.04358, 110.57252
   3.04483, 110.57901
   3.04609, 110.58547
   3.04734, 110.59187
   3.04860, 110.59822
   3.04986, 110.60453
   3.05111, 110.61079
   3.05237, 110.61700
   3.05363, 110.62317
   3.05488, 110.62929
   3.05614, 110.63536
   3.05740, 110.64138
   3.05865, 110.64735
   3.05991, 110.65328
   3.06117, 110.65916
   3.06242, 110.66499
   3.06368, 110.67077
   3.06494, 110.67651
   3.06619, 110.68220
   3.06745, 110.68784
   3.06871, 110.69344
   3.06996, 110.69898
   3.07122, 110.70448
   3.07248, 110.70993
   3.07373, 110.71534
   3.07499, 110.72070
   3.07625, 110.72601
   3.07750, 110.73127
   3.07876, 110.73649
   3.08002, 110.74165
   3.08127, 110.74678
   3.08253, 110.75185
   3.08379, 110.75688
   3.08504, 110.76186
   3.08630, 110.76679
   3.08756, 110.77167
   3.08881, 110.77651
   3.09007, 110.78130
   3.09133, 110.78605
   3.09258, 110.79074
   3.09384, 110.79539
   3.09510, 110.79999
   3.09635, 110.80455
   3.09761, 110.80906
   3.09887, 110.81352
   3.10012, 110.81793
   3.10138, 110.82230
   3.10264, 110.82662
   3.10389, 110.83090
   3.10515, 110.83512
   3.10641, 110.83930
   3.10766, 110.84343
   3.10892, 110.84752
   3.11018, 110.85156
   3.11143, 110.85555
   3.11269, 110.85950
   3.11395, 110.86339
   3.11520, 110.86725
   3.11646, 110.87105
   3.11772, 110.87481
   3.11897, 110.87852
   3.12023, 110.88218
   3.12149, 110.88580
   3.12274, 110.88937
   3.12400, 110.89290
   3.12526, 110.89637
   3.12651, 110.89980
   3.12777, 110.90319
   3.12903, 110.90653
   3.13028, 110.90982
   3.13154, 110.91306
   3.13280, 110.91626
   3.13405, 110.91941
   3.13531, 110.92251
   3.13657, 110.92557
   3.13782, 110.92858
   3.13908, 110.93155
   3.14034, 110.93446
   3.14159, 110.93734
   3.14285, 110.94016
   3.14411, 110.94294
   3.14536, 110.94567
   3.14662, 110.94836
   3.14788, 110.95099
   3.14913, 110.95359
   3.15039, 110.95613
   3.15165, 110.95863
   3.15290, 110.96109
   3.15416, 110.96349
   3.15542, 110.96585
   3.15667, 110.96817
   3.15793, 110.97043
   3.15919, 110.97265
   3.16044, 110.97483
   3.16170, 110.97696
   3.16296, 110.97904
   3.16421, 110.98108
   3.16547, 110.98306
   3.16673, 110.98501
   3.16798, 110.98690
   3.16924, 110.98875
   3.17050, 110.99056
   3.17175, 110.99232
   3.17301, 110.99403
   3.17427, 110.99569
   3.17552, 110.99731
   3.17678, 110.99889
   3.17804, 111.00041
   3.17929, 111.00189
   3.18055, 111.00333
   3.18181, 111.00471
   3.18306, 111.00606
   3.18432, 111.00735
   3.18558, 111.00860
   3.18683, 111.00980
   3.18809, 111.01096
   3.18934, 111.01207
   3.19060, 111.01314
   3.19186, 111.01416
   3.19311, 111.01513
   3.19437, 111.01606
   3.19563, 111.01694
   3.19688, 111.01777
   3.19814, 111.01856
   3.19940, 111.01930
   3.20065, 111.02000
   3.20191, 111.02065
   3.20317, 111.02125
   3.20442, 111.02181
   3.20568, 111.02232
   3.20694, 111.02279
   3.20819, 111.02321
   3.20945, 111.02358
   3.21071, 111.02391
   3.21196, 111.02419
   3.21322, 111.02442
   3.21448, 111.02461
   3.21573, 111.02476
   3.21699, 111.02486
   3.21825, 111.02491
   3.21950, 111.02491
   3.22076, 111.02487
   3.22202, 111.02479
   3.22327, 111.02466
   3.22453, 111.02448
   3.22579, 111.02425
   3.22704, 111.02398
   3.22830, 111.02367
   3.22956, 111.02331
   3.23081, 111.02290
   3.23207, 111.02245
   3.23333, 111.02195
   3.23458, 111.02140
   3.23584, 111.02081
   3.23710, 111.02017
   3.23835, 111.01949
   3.23961, 111.01876
   3.24087, 111.01799
   3.24212, 111.01717
   3.24338, 111.01630
   3.24464, 111.01539
   3.24589, 111.01443
   3.24715, 111.01343
   3.24841, 111.01238
   3.24966, 111.01128
   3.25092, 111.01014
   3.25218, 111.00896
   3.25343, 111.00772
   3.25469, 111.00644
   3.25595, 111.00512
   3.25720, 111.00375
   3.25846, 111.00233
   3.25972, 111.00087
   3.26097, 110.99936
   3.26223, 110.99781
   3.26349, 110.99621
   3.26474, 110.99457
   3.26600, 110.99288
   3.26726, 110.99114
   3.26851, 110.98936
   3.26977, 110.98753
   3.27103, 110.98565
   3.27228, 110.98374
   3.27354, 110.98177
   3.27480, 110.97976
   3.27605, 110.97770
   3.27731, 110.97560
   3.27857, 110.97345
   3.27982, 110.97126
   3.28108, 110.96902
   3.28234, 110.96673
   3.28359, 110.96440
   3.28485, 110.96202
   3.28611, 110.95960
   3.28736, 110.95713
   3.28862, 110.95462
   3.28988, 110.95206
   3.29113, 110.94945
   3.29239, 110.94680
   3.29365, 110.94410
   3.29490, 110.94136
   3.29616, 110.93857
   3.29742, 110.93574
   3.29867, 110.93286
   3.29993, 110.92993
   3.30119, 110.92696
   3.30244, 110.92394
   3.30370, 110.92088
   3.30496, 110.91777
   3.30621, 110.91462
   3.30747, 110.91142
   3.30873, 110.90817
   3.30998, 110.90488
   3.31124, 110.90154
   3.31250, 110.89816
   3.31375, 110.89473
   3.31501, 110.89125
   3.31627, 110.88773
   3.31752, 110.88417
   3.31878, 110.88056
   3.32004, 110.87690
   3.32129, 110.87320
   3.32255, 110.86945
   3.32381, 110.86565
   3.32506, 110.86181
   3.32632, 110.85793
   3.32758, 110.85400
   3.32883, 110.85002
   3.33009, 110.84599
   3.33134, 110.84193
   3.33260, 110.83781
   3.33386, 110.83365
   3.33511, 110.82944
   3.33637, 110.82519
   3.33763, 110.82090
   3.33888, 110.81655
   3.34014, 110.81216
   3.34140, 110.80773
   3.34265, 110.80325
   3.34391, 110.79872
   3.34517, 110.79415
   3.34642, 110.78953
   3.34768, 110.78487
   3.34894, 110.78016
   3.35019, 110.77541
   3.35145, 110.77060
   3.35271, 110.76576
   3.35396, 110.76087
   3.35522, 110.75593
   3.35648, 110.75094
   3.35773, 110.74592
   3.35899, 110.74084
   3.36025, 110.73572
   3.36150, 110.73055
   3.36276, 110.72534
   3.36402, 110.72008
   3.36527, 110.71478
   3.36653, 110.70943
   3.36779, 110.70403
   3.36904, 110.69859
   3.37030, 110.69310
   3.37156, 110.68757
   3.37281, 110.68199
   3.37407, 110.67637
   3.37533, 110.67069
   3.37658, 110.66498
   3.37784, 110.65922
   3.37910, 110.65341
   3.38035, 110.64755
   3.38161, 110.64165
   3.38287, 110.63571
   3.38412, 110.62972
   3.38538, 110.62368
   3.38664, 110.61760
   3.38789, 110.61147
   3.38915, 110.60529
   3.39041, 110.59907
   3.39166, 110.59280
   3.39292, 110.58649
   3.39418, 110.58013
   3.39543, 110.57373
   3.39669, 110.56728
   3.39795, 110.56078
   3.39920, 110.55424
   3.40046, 110.54765
   3.40172, 110.54102
   3.40297, 110.53434
   3.40423, 110.52761
   3.40549, 110.52084
   3.40674, 110.51402
   3.40800, 110.50716
   3.40926, 110.50025
   3.41051, 110.49329
   3.41177, 110.48629
   3.41303, 110.47924
   3.41428, 110.47215
   3.41554, 110.46501
   3.41680, 110.45783
   3.41805, 110.45059
   3.41931, 110.44332
   3.42057, 110.43599
   3.42182, 110.42862
   3.42308, 110.42121
   3.42434, 110.41374
   3.42559, 110.40624
   3.42685, 110.39868
   3.42811, 110.39108
   3.42936, 110.38344
   3.43062, 110.37574
   3.43188, 110.36801
   3.43313, 110.36022
   3.43439, 110.35239
   3.43565, 110.34451
   3.43690, 110.33659
   3.43816, 110.32862
   3.43942, 110.32061
   3.44067, 110.31255
   3.44193, 110.30444
   3.44319, 110.29628
   3.44444, 110.28808
   3.44570, 110.27984
   3.44696, 110.27155
   3.44821, 110.26321
   3.44947, 110.25482
   3.45073, 110.24639
   3.45198, 110.23791
   3.45324, 110.22939
   3.45450, 110.22082
   3.45575, 110.21221
   3.45701, 110.20354
   3.45827, 110.19483
   3.45952, 110.18608
   3.46078, 110.17728
   3.46204, 110.16843
   3.46329, 110.15954
   3.46455, 110.15060
   3.46581, 110.14161
   3.46706, 110.13258
   3.46832, 110.12350
   3.46958, 110.11437
   3.47083, 110.10520
   3.47209, 110.09598
   3.47334, 110.08672
   3.47460, 110.07741
   3.47586, 110.06805
   3.47711, 110.05864
   3.47837, 110.04919
   3.47963, 110.03970
   3.48088, 110.03015
   3.48214, 110.02056
   3.48340, 110.01093
   3.48465, 110.00124
   3.48591, 109.99151
   3.48717, 109.98174
   3.48842, 109.97191
   3.48968, 109.96204
   3.49094, 109.95213
   3.49219, 109.94216
   3.49345, 109.93216
   3.49471, 109.92210
   3.49596, 109.91200
   3.49722, 109.90185
   3.49848, 109.89165
   3.49973, 109.88141
   3.50099, 109.87112
   3.50225, 109.86078
   3.50350, 109.85040
   3.50476, 109.83997
   3.50602, 109.82950
   3.50727, 109.81897
   3.50853, 109.80840
   3.50979, 109.79779
   3.51104, 109.78712
   3.51230, 109.77641
   3.51356, 109.76566
   3.51481, 109.75485
   3.51607, 109.74400
   3.51733, 109.73310
   3.51858, 109.72216
   3.51984, 109.71117
   3.52110, 109.70013
   3.52235, 109.68905
   3.52361, 109.67791
   3.52487, 109.66673
   3.52612, 109.65551
   3.52738, 109.64424
   3.52864, 109.63292
   3.52989, 109.62155
   3.53115, 109.61013
   3.53241, 109.59867
   3.53366, 109.58717
   3.53492, 109.57561
   3.53618, 109.56401
   3.53743, 109.55236
   3.53869, 109.54066
   3.53995, 109.52892
   3.54120, 109.51713
   3.54246, 109.50529
   3.54372, 109.49340
   3.54497, 109.48147
   3.54623, 109.46949
   3.54749, 109.45746
   3.54874, 109.44539
   3.55000, 109.43327
   3.55126, 109.42110
   3.55251, 109.40888
   3.55377, 109.39662
   3.55503, 109.38431
   3.55628, 109.37195
   3.55754, 109.35954
   3.55880, 109.34709
   3.56005, 109.33459
   3.56131, 109.32204
   3.56257, 109.30945
   3.56382, 109.29680
   3.56508, 109.28411
   3.56634, 109.27138
   3.56759, 109.25859
   3.56885, 109.24576
   3.57011, 109.23288
   3.57136, 109.21995
   3.57262, 109.20697
   3.57388, 109.19395
   3.57513, 109.18088
   3.57639, 109.16776
   3.57765, 109.15459
   3.57890, 109.14138
   3.58016, 109.12812
   3.58142, 109.11481
   3.58267, 109.10145
   3.58393, 109.08805
   3.58519, 109.07459
   3.58644, 109.06109
   3.58770, 109.04754
   3.58896, 109.03395
   3.59021, 109.02030
   3.59147, 109.00661
   3.59273, 108.99287
   3.59398, 108.97908
   3.59524, 108.96525
   3.59650, 108.95136
   3.59775, 108.93743
   3.59901, 108.92345
   3.60027, 108.90942
   3.60152, 108.89534
   3.60278, 108.88122
   3.60404, 108.86705
   3.60529, 108.85283
   3.60655, 108.83856
   3.60781, 108.82424
   3.60906, 108.80988
   3.61032, 108.79546
   3.61158, 108.78100
   3.61283, 108.76649
   3.61409, 108.75193
   3.61534, 108.73733
   3.61660, 108.72267
   3.61786, 108.70797
   3.61911, 108.69322
   3.62037, 108.67842
   3.62163, 108.66357
   3.62288, 108.64867
   3.62414, 108.63373
   3.62540, 108.61873
   3.62665, 108.60369
   3.62791, 108.58860
   3.62917, 108.57346
   3.63042, 108.55827
   3.63168, 108.54304
   3.63294, 108.52775
   3.63419, 108.51242
   3.63545, 108.49703
   3.63671, 108.48160
   3.63796, 108.46612
   3.63922, 108.45059
   3.64048, 108.43502
   3.64173, 108.41939
   3.64299, 108.40371
   3.64425, 108.38799
   3.64550, 108.37222
   3.64676, 108.35639
   3.64802, 108.34052
   3.64927, 108.32460
   3.65053, 108.30863
   3.65179, 108.29262
   3.65304, 108.27655
   3.65430, 108.26043
   3.65556, 108.24427
   3.65681, 108.22805
   3.65807, 108.21179
   3.65933, 108.19548
   3.66058, 108.17912
   3.66184, 108.16270
   3.66310, 108.14624
   3.66435, 108.12973
   3.66561, 108.11318
   3.66687, 108.09657
   3.66812, 108.07991
   3.66938, 108.06320
   3.67064, 108.04645
   3.67189, 108.02964
   3.67315, 108.01278
   3.67441, 107.99588
   3.67566, 107.97893
   3.67692, 107.96192
   3.67818, 107.94487
   3.67943, 107.92776
   3.68069, 107.91061
   3.68195, 107.89341
   3.68320, 107.87616
   3.68446, 107.85885
   3.68572, 107.84150
   3.68697, 107.82410
   3.68823, 107.80665
   3.68949, 107.78915
   3.69074, 107.77160
   3.69200, 107.75400
   3.69326, 107.73635
   3.69451, 107.71864
   3.69577, 107.70089
   3.69703, 107.68309
   3.69828, 107.66524
   3.69954, 107.64734
   3.70080, 107.62939
   3.70205, 107.61139
   3.70331, 107.59334
   3.70457, 107.57523
   3.70582, 107.55708
   3.70708, 107.53888
   3.70834, 107.52063
   3.70959, 107.50232
   3.71085, 107.48397
   3.71211, 107.46557
   3.71336, 107.44711
   3.71462, 107.42861
   3.71588, 107.41005
   3.71713, 107.39145
   3.71839, 107.37279
   3.71965, 107.35408
   3.72090, 107.33533
   3.72216, 107.31652
   3.72342, 107.29766
   3.72467, 107.27875
   3.72593, 107.25979
   3.72719, 107.24078
   3.72844, 107.22171
   3.72970, 107.20260
   3.73096, 107.18344
   3.73221, 107.16422
   3.73347, 107.14496
   3.73473, 107.12564
   3.73598, 107.10627
   3.73724, 107.08685
   3.73850, 107.06738
   3.73975, 107.04786
   3.74101, 107.02829
   3.74227, 107.00867
   3.74352, 106.98899
   3.74478, 106.96926
   3.74604, 106.94949
   3.74729, 106.92966
   3.74855, 106.90978
   3.74981, 106.88985
   3.75106, 106.86986
   3.75232, 106.84983
   3.75358, 106.82974
   3.75483, 106.80960
   3.75609, 106.78941
   3.75734, 106.76917
   3.75860, 106.74888
   3.75986, 106.72854
   3.76111, 106.70814
   3.76237, 106.68769
   3.76363, 106.66719
   3.76488, 106.64664
   3.76614, 106.62604
   3.76740, 106.60538
   3.76865, 106.58467
   3.76991, 106.56391
   3.77117, 106.54310
   3.77242, 106.52224
   3.77368, 106.50132
   3.77494, 106.48035
   3.77619, 106.45933
   3.77745, 106.43826
   3.77871, 106.41713
   3.77996, 106.39596
   3.78122, 106.37473
   3.78248, 106.35344
   3.78373, 106.33211
   3.78499, 106.31072
   3.78625, 106.28928
   3.78750, 106.26779
   3.78876, 106.24624
   3.79002, 106.22465
   3.79127, 106.20300
   3.79253, 106.18129
   3.79379, 106.15954
   3.79504, 106.13773
   3.79630, 106.11587
   3.79756, 106.09395
   3.79881, 106.07198
   3.80007, 106.04996
   3.80133, 106.02789
   3.80258, 106.00576
   3.80384, 105.98358
   3.80510, 105.96135
   3.80635, 105.93906
   3.80761, 105.91672
   3.80887, 105.89433
   3.81012, 105.87188
   3.81138, 105.84939
   3.81264, 105.82683
   3.81389, 105.80423
   3.81515, 105.78157
   3.81641, 105.75885
   3.81766, 105.73608
   3.81892, 105.71326
   3.82018, 105.69039
   3.82143, 105.66746
   3.82269, 105.64448
   3.82395, 105.62144
   3.82520, 105.59835
   3.82646, 105.57521
   3.82772, 105.55201
   3.82897, 105.52876
   3.83023, 105.50545
   3.83149, 105.48209
   3.83274, 105.45868
   3.83400, 105.43521
   3.83526, 105.41168
   3.83651, 105.38811
   3.83777, 105.36448
   3.83903, 105.34079
   3.84028, 105.31705
   3.84154, 105.29325
   3.84280, 105.26941
   3.84405, 105.24550
   3.84531, 105.22154
   3.84657, 105.19753
   3.84782, 105.17346
   3.84908, 105.14934
   3.85034, 105.12516
   3.85159, 105.10093
   3.85285, 105.07664
   3.85411, 105.05230
   3.85536, 105.02790
   3.85662, 105.00345
   3.85788, 104.97894
   3.85913, 104.95437
   3.86039, 104.92976
   3.86165, 104.90508
   3.86290, 104.88035
   3.86416, 104.85557
   3.86542, 104.83073
   3.86667, 104.80583
   3.86793, 104.78088
   3.86919, 104.75587
   3.87044, 104.73081
   3.87170, 104.70569
   3.87296, 104.68052
   3.87421, 104.65529
   3.87547, 104.63000
   3.87673, 104.60466
   3.87798, 104.57926
   3.87924, 104.55381
   3.88050, 104.52830
   3.88175, 104.50274
   3.88301, 104.47711
   3.88427, 104.45144
   3.88552, 104.42570
   3.88678, 104.39991
   3.88804, 104.37406
   3.88929, 104.34816
   3.89055, 104.32220
   3.89181, 104.29618
   3.89306, 104.27011
   3.89432, 104.24398
   3.89557, 104.21779
   3.89683, 104.19154
   3.89809, 104.16524
   3.89934, 104.13889
   3.90060, 104.11247
   3.90186, 104.08600
   3.90311, 104.05947
   3.90437, 104.03288
   3.90563, 104.00624
   3.90688, 103.97954
   3.90814, 103.95278
   3.90940, 103.92596
   3.91065, 103.89909
   3.91191, 103.87216
   3.91317, 103.84517
   3.91442, 103.81813
   3.91568, 103.79102
   3.91694, 103.76386
   3.91819, 103.73664
   3.91945, 103.70937
   3.92071, 103.68203
   3.92196, 103.65464
   3.92322, 103.62719
   3.92448, 103.59968
   3.92573, 103.57211
   3.92699, 103.54449
   3.92825, 103.51680
   3.92950, 103.48906
   3.93076, 103.46126
   3.93202, 103.43340
   3.93327, 103.40548
   3.93453, 103.37750
   3.93579, 103.34947
   3.93704, 103.32138
   3.93830, 103.29322
   3.93956, 103.26501
   3.94081, 103.23674
   3.94207, 103.20841
   3.94333, 103.18002
   3.94458, 103.15157
   3.94584, 103.12307
   3.94710, 103.09450
   3.94835, 103.06587
   3.94961, 103.03719
   3.95087, 103.00844
   3.95212, 102.97964
   3.95338, 102.95078
   3.95464, 102.92185
   3.95589, 102.89287
   3.95715, 102.86382
   3.95841, 102.83472
   3.95966, 102.80556
   3.96092, 102.77634
   3.96218, 102.74705
   3.96343, 102.71771
   3.96469, 102.68830
   3.96595, 102.65884
   3.96720, 102.62932
   3.96846, 102.59973
   3.96972, 102.57009
   3.97097, 102.54038
   3.97223, 102.51061
   3.97349, 102.48079
   3.97474, 102.45090
   3.97600, 102.42095
   3.97726, 102.39094
   3.97851, 102.36087
   3.97977, 102.33073
   3.98103, 102.30054
   3.98228, 102.27029
   3.98354, 102.23997
   3.98480, 102.20959
   3.98605, 102.17915
   3.98731, 102.14865
   3.98857, 102.11809
   3.98982, 102.08747
   3.99108, 102.05678
   3.99234, 102.02603
   3.99359, 101.99522
   3.99485, 101.96435
   3.99611, 101.93342
   3.99736, 101.90242
   3.99862, 101.87137
   3.99988, 101.84025
   4.00113, 101.80906
   4.00239, 101.77782
   4.00365, 101.74651
   4.00490, 101.71514
   4.00616, 101.68371
   4.00742, 101.65221
   4.00867, 101.62065
   4.00993, 101.58903
   4.01119, 101.55735
   4.01244, 101.52560
   4.01370, 101.49379
   4.01496, 101.46191
   4.01621, 101.42998
   4.01747, 101.39797
   4.01873, 101.36591
   4.01998, 101.33378
   4.02124, 101.30159
   4.02250, 101.26933
   4.02375, 101.23702
   4.02501, 101.20463
   4.02627, 101.17218
   4.02752, 101.13967
   4.02878, 101.10710
   4.03004, 101.07446
   4.03129, 101.04175
   4.03255, 101.00898
   4.03381, 100.97615
   4.03506, 100.94325
   4.03632, 100.91029
   4.03757, 100.87726
   4.03883, 100.84417
   4.04009, 100.81101
   4.04134, 100.77779
   4.04260, 100.74450
   4.04386, 100.71115
   4.04511, 100.67773
   4.04637, 100.64425
   4.04763, 100.61070
   4.04888, 100.57708
   4.05014, 100.54340
   4.05140, 100.50966
   4.05265, 100.47585
   4.05391, 100.44197
   4.05517, 100.40802
   4.05642, 100.37401
   4.05768, 100.33994
   4.05894, 100.30580
   4.06019, 100.27159
   4.06145, 100.23731
   4.06271, 100.20297
   4.06396, 100.16856
   4.06522, 100.13408
   4.06648, 100.09954
   4.06773, 100.06493
   4.06899, 100.03025
   4.07025,  99.99551
   4.07150,  99.96070
   4.07276,  99.92582
   4.07402,  99.89088
   4.07527,  99.85586
   4.07653,  99.82078
   4.07779,  99.78563
   4.07904,  99.75041
   4.08030,  99.71513
   4.08156,  99.67978
   4.08281,  99.64436
   4.08407,  99.60887
   4.08533,  99.57331
   4.08658,  99.53768
   4.08784,  99.50199
   4.08910,  99.46622
   4.09035,  99.43039
   4.09161,  99.39449
   4.09287,  99.35852
   4.09412,  99.32248
   4.09538,  99.28637
   4.09664,  99.25020
   4.09789,  99.21395
   4.09915,  99.17763
   4.10041,  99.14125
   4.10166,  99.10479
   4.10292,  99.06826
   4.10418,  99.03167
   4.10543,  98.99500
   4.10669,  98.95827
   4.10795,  98.92146
   4.10920,  98.88459
   4.11046,  98.84764
   4.11172,  98.81062
   4.11297,  98.77353
   4.11423,  98.73637
   4.11549,  98.69914
   4.11674,  98.66184
   4.11800,  98.62447
   4.11926,  98.58703
   4.12051,  98.54951
   4.12177,  98.51193
   4.12303,  98.47427
   4.12428,  98.43654
   4.12554,  98.39874
   4.12680,  98.36087
   4.12805,  98.32292
   4.12931,  98.28490
   4.13057,  98.24681
   4.13182,  98.20865
   4.13308,  98.17042
   4.13434,  98.13211
   4.13559,  98.09373
   4.13685,  98.05528
   4.13811,  98.01675
   4.13936,  97.97815
   4.14062,  97.93948
   4.14188,  97.90074
   4.14313,  97.86192
   4.14439,  97.82302
   4.14565,  97.78406
   4.14690,  97.74502
   4.14816,  97.70590
   4.14942,  97.66672
   4.15067,  97.62745
   4.15193,  97.58812
   4.15319,  97.54871
   4.15444,  97.50922
   4.15570,  97.46966
   4.15696,  97.43003
   4.15821,  97.39032
   4.15947,  97.35053
   4.16073,  97.31067
   4.16198,  97.27073
   4.16324,  97.23072
   4.16450,  97.19064
   4.16575,  97.15047
   4.16701,  97.11024
   4.16827,  97.06992
   4.16952,  97.02953
   4.17078,  96.98906
   4.17204,  96.94852
   4.17329,  96.90790
   4.17455,  96.86720
   4.17581,  96.82643
   4.17706,  96.78558
   4.17832,  96.74465
   4.17957,  96.70365
   4.18083,  96.66257
   4.18209,  96.62141
   4.18334,  96.58017
   4.18460,  96.53886
   4.18586,  96.49747
   4.18711,  96.45600
   4.18837,  96.41445
   4.18963,  96.37282
   4.19088,  96.33112
   4.19214,  96.28933
   4.19340,  96.24747
   4.19465,  96.20553
   4.19591,  96.16351
   4.19717,  96.12141
   4.19842,  96.07923
   4.19968,  96.03697
   4.20094,  95.99463
   4.20219,  95.95222
   4.20345,  95.90972
   4.20471,  95.86714
   4.20596,  95.82448
   4.20722,  95.78175
   4.20848,  95.73893
   4.20973,  95.69603
   4.21099,  95.65305
   4.21225,  95.60999
   4.21350,  95.56685
   4.21476,  95.52362
   4.21602,  95.48032
   4.21727,  95.43693
   4.21853,  95.39347
   4.21979,  95.34992
   4.22104,  95.30628
   4.22230,  95.26257
   4.22356,  95.21878
   4.22481,  95.17490
   4.22607,  95.13094
   4.22733,  95.08689
   4.22858,  95.04276
   4.22984,  94.99856
   4.23110,  94.95426
   4.23235,  94.90989
   4.23361,  94.86542
   4.23487,  94.82088
   4.23612,  94.77625
   4.23738,  94.73154
   4.23864,  94.68674
   4.23989,  94.64186
   4.24115,  94.59690
   4.24241,  94.55185
   4.24366,  94.50671
   4.24492,  94.46149
   4.24618,  94.41619
   4.24743,  94.37080
   4.24869,  94.32532
   4.24995,  94.27976
   4.25120,  94.23411
   4.25246,  94.18838
   4.25372,  94.14256
   4.25497,  94.09665
   4.25623,  94.05066
   4.25749,  94.00458
   4.25874,  93.95841
   4.26000,  93.91215
   4.26126,  93.86581
   4.26251,  93.81938
   4.26377,  93.77287
   4.26503,  93.72626
   4.26628,  93.67957
   4.26754,  93.63279
   4.26880,  93.58592
   4.27005,  93.53896
   4.27131,  93.49191
   4.27257,  93.44478
   4.27382,  93.39755
   4.27508,  93.35024
   4.27634,  93.30283
   4.27759,  93.25534
   4.27885,  93.20776
   4.28011,  93.16008
   4.28136,  93.11232
   4.28262,  93.06446
   4.28388,  93.01652
   4.28513,  92.96848
   4.28639,  92.92035
   4.28765,  92.87214
   4.28890,  92.82383
   4.29016,  92.77542
   4.29142,  92.72693
   4.29267,  92.67835
   4.29393,  92.62967
   4.29519,  92.58090
   4.29644,  92.53203
   4.29770,  92.48308
   4.29896,  92.43403
   4.30021,  92.38489
   4.30147,  92.33565
   4.30273,  92.28632
   4.30398,  92.23690
   4.30524,  92.18738
   4.30650,  92.13777
   4.30775,  92.08807
   4.30901,  92.03827
   4.31027,  91.98837
   4.31152,  91.93838
   4.31278,  91.88829
   4.31404,  91.83811
   4.31529,  91.78784
   4.31655,  91.73746
   4.31781,  91.68699
   4.31906,  91.63643
   4.32032,  91.58576
   4.32157,  91.53500
   4.32283,  91.48415
   4.32409,  91.43319
   4.32534,  91.38214
   4.32660,  91.33099
   4.32786,  91.27975
   4.32911,  91.22840
   4.33037,  91.17696
   4.33163,  91.12542
   4.33288,  91.07378
   4.33414,  91.02204
   4.33540,  90.97020
   4.33665,  90.91826
   4.33791,  90.86622
   4.33917,  90.81408
   4.34042,  90.76184
   4.34168,  90.70950
   4.34294,  90.65706
   4.34419,  90.60452
   4.34545,  90.55188
   4.34671,  90.49913
   4.34796,  90.44629
   4.34922,  90.39334
   4.35048,  90.34029
   4.35173,  90.28714
   4.35299,  90.23388
   4.35425,  90.18052
   4.35550,  90.12706
   4.35676,  90.07350
   4.35802,  90.01983
   4.35927,  89.96606
   4.36053,  89.91218
   4.36179,  89.85820
   4.36304,  89.80412
   4.36430,  89.74993
   4.36556,  89.69563
   4.36681,  89.64123
   4.36807,  89.58672
   4.36933,  89.53211
   4.37058,  89.47739
   4.37184,  89.42257
   4.37310,  89.36764
   4.37435,  89.31260
   4.37561,  89.25745
   4.37687,  89.20220
   4.37812,  89.14684
   4.37938,  89.09137
   4.38064,  89.03579
   4.38189,  88.98010
   4.38315,  88.92431
   4.38441,  88.86840
   4.38566,  88.81239
   4.38692,  88.75626
   4.38818,  88.70003
   4.38943,  88.64369
   4.39069,  88.58723
   4.39195,  88.53067
   4.39320,  88.47399
   4.39446,  88.41720
   4.39572,  88.36030
   4.39697,  88.30329
   4.39823,  88.24617
   4.39949,  88.18893
   4.40074,  88.13158
   4.40200,  88.07412
   4.40326,  88.01654
   4.40451,  87.95885
   4.40577,  87.90105
   4.40703,  87.84313
   4.40828,  87.78510
   4.40954,  87.72695
   4.41080,  87.66869
   4.41205,  87.61031
   4.41331,  87.55182
   4.41457,  87.49321
   4.41582,  87.43448
   4.41708,  87.37563
   4.41834,  87.31667
   4.41959,  87.25760
   4.42085,  87.19840
   4.42211,  87.13909
   4.42336,  87.07965
   4.42462,  87.02010
   4.42588,  86.96043
   4.42713,  86.90064
   4.42839,  86.84074
   4.42965,  86.78071
   4.43090,  86.72056
   4.43216,  86.66029
   4.43342,  86.59990
   4.43467,  86.53939
   4.43593,  86.47875
   4.43719,  86.41800
   4.43844,  86.35712
   4.43970,  86.29612
   4.44096,  86.23500
   4.44221,  86.17375
   4.44347,  86.11238
   4.44473,  86.05088
   4.44598,  85.98927
   4.44724,  85.92752
   4.44850,  85.86565
   4.44975,  85.80366
   4.45101,  85.74154
   4.45227,  85.67930
   4.45352,  85.61692
   4.45478,  85.55443
   4.45604,  85.49180
   4.45729,  85.42905
   4.45855,  85.36617
   4.45981,  85.30316
   4.46106,  85.24002
   4.46232,  85.17675
   4.46357,  85.11335
   4.46483,  85.04983
   4.46609,  84.98617
   4.46734,  84.92239
   4.46860,  84.85847
   4.46986,  84.79442
   4.47111,  84.73024
   4.47237,  84.66593
   4.47363,  84.60148
   4.47488,  84.53691
   4.47614,  84.47219
   4.47740,  84.40735
   4.47865,  84.34237
   4.47991,  84.27726
   4.48117,  84.21201
   4.48242,  84.14663
   4.48368,  84.08111
   4.48494,  84.01546
   4.48619,  83.94967
   4.48745,  83.88374
   4.48871,  83.81768
   4.48996,  83.75148
   4.49122,  83.68514
   4.49248,  83.61866
   4.49373,  83.55204
   4.49499,  83.48529
   4.49625,  83.41839
   4.49750,  83.35136
   4.49876,  83.28418
   4.50002,  83.21687
   4.50127,  83.14941
   4.50253,  83.08181
   4.50379,  83.01407
   4.50504,  82.94618
   4.50630,  82.87815
   4.50756,  82.80998
   4.50881,  82.74167
   4.51007,  82.67321
   4.51133,  82.60460
   4.51258,  82.53585
   4.51384,  82.46696
   4.51510,  82.39792
   4.51635,  82.32873
   4.51761,  82.25939
   4.51887,  82.18991
   4.52012,  82.12028
   4.52138,  82.05050
   4.52264,  81.98057
   4.52389,  81.91050
   4.52515,  81.84027
   4.52641,  81.76989
   4.52766,  81.69936
   4.52892,  81.62868
   4.53018,  81.55785
   4.53143,  81.48686
   4.53269,  81.41573
   4.53395,  81.34444
   4.53520,  81.27299
   4.53646,  81.20140
   4.53772,  81.12964
   4.53897,  81.05773
   4.54023,  80.98567
   4.54149,  80.91345
   4.54274,  80.84107
   4.54400,  80.76854
   4.54526,  80.69585
   4.54651,  80.62300
   4.54777,  80.54999
   4.54903,  80.47682
   4.55028,  80.40349
   4.55154,  80.33001
   4.55280,  80.25636
   4.55405,  80.18255
   4.55531,  80.10857
   4.55657,  80.03444
   4.55782,  79.96014
   4.55908,  79.88568
   4.56034,  79.81105
   4.56159,  79.73626
   4.56285,  79.66131
   4.56411,  79.58619
   4.56536,  79.51090
   4.56662,  79.43544
   4.56788,  79.35982
   4.56913,  79.28403
   4.57039,  79.20807
   4.57165,  79.13195
   4.57290,  79.05565
   4.57416,  78.97918
   4.57542,  78.90255
   4.57667,  78.82574
   4.57793,  78.74875
   4.57919,  78.67160
   4.58044,  78.59427
   4.58170,  78.51677
   4.58296,  78.43910
   4.58421,  78.36125
   4.58547,  78.28322
   4.58673,  78.20502
   4.58798,  78.12664
   4.58924,  78.04808
   4.59050,  77.96935
   4.59175,  77.89044
   4.59301,  77.81135
   4.59427,  77.73207
   4.59552,  77.65262
   4.59678,  77.57299
   4.59804,  77.49317
   4.59929,  77.41318
   4.60055,  77.33300
   4.60181,  77.25263
   4.60306,  77.17209
   4.60432,  77.09135
   4.60557,  77.01043
   4.60683,  76.92933
   4.60809,  76.84804
   4.60934,  76.76656
   4.61060,  76.68489
   4.61186,  76.60303
   4.61311,  76.52099
   4.61437,  76.43875
   4.61563,  76.35632
   4.61688,  76.27370
   4.61814,  76.19089
   4.61940,  76.10789
   4.62065,  76.02469
   4.62191,  75.94130
   4.62317,  75.85771
   4.62442,  75.77393
   4.62568,  75.68995
   4.62694,  75.60577
   4.62819,  75.52139
   4.62945,  75.43682
   4.63071,  75.35205
   4.63196,  75.26707
   4.63322,  75.18190
   4.63448,  75.09653
   4.63573,  75.01095
   4.63699,  74.92517
   4.63825,  74.83918
   4.63950,  74.75299
   4.64076,  74.66660
   4.64202,  74.58000
   4.64327,  74.49319
   4.64453,  74.40617
   4.64579,  74.31895
   4.64704,  74.23152
   4.64830,  74.14388
   4.64956,  74.05602
   4.65081,  73.96796
   4.65207,  73.87968
   4.65333,  73.79119
   4.65458,  73.70249
   4.65584,  73.61357
   4.65710,  73.52443
   4.65835,  73.43508
   4.65961,  73.34552
   4.66087,  73.25573
   4.66212,  73.16573
   4.66338,  73.07550
   4.66464,  72.98506
   4.66589,  72.89439
   4.66715,  72.80351
   4.66841,  72.71240
   4.66966,  72.62106
   4.67092,  72.52950
   4.67218,  72.43772
   4.67343,  72.34571
   4.67469,  72.25347
   4.67595,  72.16100
   4.67720,  72.06831
   4.67846,  71.97539
   4.67972,  71.88223
   4.68097,  71.78884
   4.68223,  71.69522
   4.68349,  71.60137
   4.68474,  71.50728
   4.68600,  71.41296
   4.68726,  71.31840
   4.68851,  71.22361
   4.68977,  71.12857
   4.69103,  71.03330
   4.69228,  70.93779
   4.69354,  70.84203
   4.69480,  70.74604
   4.69605,  70.64980
   4.69731,  70.55332
   4.69857,  70.45660
   4.69982,  70.35962
   4.70108,  70.26241
   4.70234,  70.16494
   4.70359,  70.06723
   4.70485,  69.96927
   4.70611,  69.87105
   4.70736,  69.77259
   4.70862,  69.67387
   4.70988,  69.57490
   4.71113,  69.47568
   4.71239,  69.37620
   4.71365,  69.28137
   4.71490,  69.19074
   4.71616,  69.10391
   4.71742,  69.02052
   4.71867,  68.94025
   4.71993,  68.86283
   4.72119,  68.78800
   4.72244,  68.71554
   4.72370,  68.64527
   4.72496,  68.57699
   4.72621,  68.51057
   4.72747,  68.44584
   4.72873,  68.38270
   4.72998,  68.32103
   4.73124,  68.26073
   4.73250,  68.20170
   4.73375,  68.14386
   4.73501,  68.08715
   4.73627,  68.03148
   4.73752,  67.97681
   4.73878,  67.92308
   4.74004,  67.87023
   4.74129,  67.81822
   4.74255,  67.76701
   4.74381,  67.71655
   4.74506,  67.66682
   4.74632,  67.61778
   4.74757,  67.56940
   4.74883,  67.52166
   4.75009,  67.47452
   4.75134,  67.42796
   4.75260,  67.38197
   4.75386,  67.33651
   4.75511,  67.29158
   4.75637,  67.24715
   4.75763,  67.20321
   4.75888,  67.15973
   4.76014,  67.11672
   4.76140,  67.07414
   4.76265,  67.03199
   4.76391,  66.99026
   4.76517,  66.94893
   4.76642,  66.90800
   4.76768,  66.86745
   4.76894,  66.82727
   4.77019,  66.78745
   4.77145,  66.74799
   4.77271,  66.70887
   4.77396,  66.67009
   4.77522,  66.63163
   4.77648,  66.59350
   4.77773,  66.55568
   4.77899,  66.51817
   4.78025,  66.48096
   4.78150,  66.44404
   4.78276,  66.40742
   4.78402,  66.37107
   4.78527,  66.33500
   4.78653,  66.29920
   4.78779,  66.26366
   4.78904,  66.22839
   4.79030,  66.19337
   4.79156,  66.15860
   4.79281,  66.12407
   4.79407,  66.08979
   4.79533,  66.05575
   4.79658,  66.02193
   4.79784,  65.98835
   4.79910,  65.95499
   4.80035,  65.92185
   4.80161,  65.88893
   4.80287,  65.85623
   4.80412,  65.82373
   4.80538,  65.79144
   4.80664,  65.75935
   4.80789,  65.72747
   4.80915,  65.69578
   4.81041,  65.66428
   4.81166,  65.63298
   4.81292,  65.60187
   4.81418,  65.57094
   4.81543,  65.54019
   4.81669,  65.50963
   4.81795,  65.47924
   4.81920,  65.44903
   4.82046,  65.41899
   4.82172,  65.38912
   4.82297,  65.35941
   4.82423,  65.32988
   4.82549,  65.30050
   4.82674,  65.27129
   4.82800,  65.24224
   4.82926,  65.21334
   4.83051,  65.18460
   4.83177,  65.15601
   4.83303,  65.12757
   4.83428,  65.09929
   4.83554,  65.07114
   4.83680,  65.04315
   4.83805,  65.01530
   4.83931,  64.98759
   4.84057,  64.96002
   4.84182,  64.93258
   4.84308,  64.90529
   4.84434,  64.87813
   4.84559,  64.85110
   4.84685,  64.82421
   4.84811,  64.79744
   4.84936,  64.77081
   4.85062,  64.74430
   4.85188,  64.71792
   4.85313,  64.69166
   4.85439,  64.66552
   4.85565,  64.63951
   4.85690,  64.61362
   4.85816,  64.58785
   4.85942,  64.56219
   4.86067,  64.53666
   4.86193,  64.51123
   4.86319,  64.48593
   4.86444,  64.46073
   4.86570,  64.43565
   4.86696,  64.41068
   4.86821,  64.38581
   4.86947,  64.36106
   4.87073,  64.33641
   4.87198,  64.31187
   4.87324,  64.28744
   4.87450,  64.26311
   4.87575,  64.23888
   4.87701,  64.21476
   4.87827,  64.19073
   4.87952,  64.16681
   4.88078,  64.14298
   4.88204,  64.11926
   4.88329,  64.09563
   4.88455,  64.07210
   4.88581,  64.04866
   4.88706,  64.02532
   4.88832,  64.00207
   4.88957,  63.97891
   4.89083,  63.95585
   4.89209,  63.93288
   4.89334,  63.91000
   4.89460,  63.88720
   4.89586,  63.86450
   4.89711,  63.84189
   4.89837,  63.81936
   4.89963,  63.79692
   4.90088,  63.77456
   4.90214,  63.75229
   4.90340,  63.73011
   4.90465,  63.70801
   4.90591,  63.68599
   4.90717,  63.66405
   4.90842,  63.64219
   4.90968,  63.62042
   4.91094,  63.59872
   4.91219,  63.57711
   4.91345,  63.55557
   4.91471,  63.53412
   4.91596,  63.51273
   4.91722,  63.49143
   4.91848,  63.47020
   4.91973,  63.44905
   4.92099,  63.42798
   4.92225,  63.40697
   4.92350,  63.38605
   4.92476,  63.36519
   4.92602,  63.34441
   4.92727,  63.32370
   4.92853,  63.30306
   4.92979,  63.28250
   4.93104,  63.26200
   4.93230,  63.24157
   4.93356,  63.22122
   4.93481,  63.20093
   4.93607,  63.18071
   4.93733,  63.16056
   4.93858,  63.14047
   4.93984,  63.12046
   4.94110,  63.10051
   4.94235,  63.08062
   4.94361,  63.06080
   4.94487,  63.04105
   4.94612,  63.02136
   4.94738,  63.00173
   4.94864,  62.98217
   4.94989,  62.96267
   4.95115,  62.94324
   4.95241,  62.92386
   4.95366,  62.90455
   4.95492,  62.88530
   4.95618,  62.86611
   4.95743,  62.84698
   4.95869,  62.82791
   4.95995,  62.80890
   4.96120,  62.78996
   4.96246,  62.77106
   4.96372,  62.75223
   4.96497,  62.73346
   4.96623,  62.71474
   4.96749,  62.69608
   4.96874,  62.67748
   4.97000,  62.65894
   4.97126,  62.64045
   4.97251,  62.62201
   4.97377,  62.60363
   4.97503,  62.58531
   4.97628,  62.56704
   4.97754,  62.54883
   4.97880,  62.53067
   4.98005,  62.51257
   4.98131,  62.49451
   4.98257,  62.47651
   4.98382,  62.45857
   4.98508,  62.44067
   4.98634,  62.42283
   4.98759,  62.40504
   4.98885,  62.38730
   4.99011,  62.36961
   4.99136,  62.35197
   4.99262,  62.33439
   4.99388,  62.31685
   4.99513,  62.29936
   4.99639,  62.28193
   4.99765,  62.26454
   4.99890,  62.24720
   5.00016,  62.22991
   5.00142,  62.21267
   5.00267,  62.19547
   5.00393,  62.17832
   5.00519,  62.16123
   5.00644,  62.14417
   5.00770,  62.12717
   5.00896,  62.11021
   5.01021,  62.09330
   5.01147,  62.07643
   5.01273,  62.05961
   5.01398,  62.04284
   5.01524,  62.02611
   5.01650,  62.00942
   5.01775,  61.99278
   5.01901,  61.97619
   5.02027,  61.95964
   5.02152,  61.94313
   5.02278,  61.92667
   5.02404,  61.91025
   5.02529,  61.89387
   5.02655,  61.87754
   5.02781,  61.86125
   5.02906,  61.84500
   5.03032,  61.82880
   5.03157,  61.81264
   5.03283,  61.79651
   5.03409,  61.78043
   5.03534,  61.76440
   5.03660,  61.74840
   5.03786,  61.73244
   5.03911,  61.71653
   5.04037,  61.70065
   5.04163,  61.68482
   5.04288,  61.66902
   5.04414,  61.65327
   5.04540,  61.63755
   5.04665,  61.62188
   5.04791,  61.60624
   5.04917,  61.59065
   5.05042,  61.57509
   5.05168,  61.55957
   5.05294,  61.54409
   5.05419,  61.52864
   5.05545,  61.51324
   5.05671,  61.49787
   5.05796,  61.48254
   5.05922,  61.46725
   5.06048,  61.45199
   5.06173,  61.43678
   5.06299,  61.42160
   5.06425,  61.40645
   5.06550,  61.39134
   5.06676,  61.37627
   5.06802,  61.36124
   5.06927,  61.34624
   5.07053,  61.33128
   5.07179,  61.31635
   5.07304,  61.30145
   5.07430,  61.28660
   5.07556,  61.27178
   5.07681,  61.25699
   5.07807,  61.24224
   5.07933,  61.22752
   5.08058,  61.21283
   5.08184,  61.19819
   5.08310,  61.18357
   5.08435,  61.16899
   5.08561,  61.15444
   5.08687,  61.13993
   5.08812,  61.12545
   5.08938,  61.11100
   5.09064,  61.09658
   5.09189,  61.08220
   5.09315,  61.06785
   5.09441,  61.05354
   5.09566,  61.03926
   5.09692,  61.02500
   5.09818,  61.01079
   5.09943,  60.99660
   5.10069,  60.98244
   5.10195,  60.96832
   5.10320,  60.95423
   5.10446,  60.94017
   5.10572,  60.92614
   5.10697,  60.91214
   5.10823,  60.89817
   5.10949,  60.88424
   5.11074,  60.87033
   5.11200,  60.85646
   5.11326,  60.84261
   5.11451,  60.82880
   5.11577,  60.81502
   5.11703,  60.80126
   5.11828,  60.78754
   5.11954,  60.77384
   5.12080,  60.76018
   5.12205,  60.74654
   5.12331,  60.73294
   5.12457,  60.71936
   5.12582,  60.70581
   5.12708,  60.69230
   5.12834,  60.67881
   5.12959,  60.66535
   5.13085,  60.65191
   5.13211,  60.63851
   5.13336,  60.62514
   5.13462,  60.61179
   5.13588,  60.59847
   5.13713,  60.58518
   5.13839,  60.57192
   5.13965,  60.55868
   5.14090,  60.54547
   5.14216,  60.53229
   5.14342,  60.51914
   5.14467,  60.50601
   5.14593,  60.49292
   5.14719,  60.47984
   5.14844,  60.46680
   5.14970,  60.45378
   5.15096,  60.44079
   5.15221,  60.42783
   5.15347,  60.41489
   5.15473,  60.40198
   5.15598,  60.38909
   5.15724,  60.37623
   5.15850,  60.36340
   5.15975,  60.35059
   5.16101,  60.33781
   5.16227,  60.32506
   5.16352,  60.31233
   5.16478,  60.29962
   5.16604,  60.28694
   5.16729,  60.27429
   5.16855,  60.26166
   5.16981,  60.24906
   5.17106,  60.23648
   5.17232,  60.22393
   5.17357,  60.21140
   5.17483,  60.19890
   5.17609,  60.18642
   5.17734,  60.17396
   5.17860,  60.16153
   5.17986,  60.14913
   5.18111,  60.13674
   5.18237,  60.12439
   5.18363,  60.11205
   5.18488,  60.09974
   5.18614,  60.08746
   5.18740,  60.07520
   5.18865,  60.06296
   5.18991,  60.05074
   5.19117,  60.03855
   5.19242,  60.02638
   5.19368,  60.01424
   5.19494,  60.00212
   5.19619,  59.99002
   5.19745,  59.97794
   5.19871,  59.96589
   5.19996,  59.95386
   5.20122,  59.94185
   5.20248,  59.92987
   5.20373,  59.91791
   5.20499,  59.90597
   5.20625,  59.89405
   5.20750,  59.88216
   5.20876,  59.87029
   5.21002,  59.85844
   5.21127,  59.84661
   5.21253,  59.83480
   5.21379,  59.82302
   5.21504,  59.81126
   5.21630,  59.79952
   5.21756,  59.78780
   5.21881,  59.77610
   5.22007,  59.76443
   5.22133,  59.75277
   5.22258,  59.74114
   5.22384,  59.72953
   5.22510,  59.71794
   5.22635,  59.70637
   5.22761,  59.69482
   5.22887,  59.68330
   5.23012,  59.67179
   5.23138,  59.66030
   5.23264,  59.64884
   5.23389,  59.63740
   5.23515,  59.62597
   5.23641,  59.61457
   5.23766,  59.60319
   5.23892,  59.59182
   5.24018,  59.58048
   5.24143,  59.56916
   5.24269,  59.55786
   5.24395,  59.54658
   5.24520,  59.53532
   5.24646,  59.52408
   5.24772,  59.51286
   5.24897,  59.50165
   5.25023,  59.49047
   5.25149,  59.47931
   5.25274,  59.46817
   5.25400,  59.45704
   5.25526,  59.44594
   5.25651,  59.43486
   5.25777,  59.42379
   5.25903,  59.41275
   5.26028,  59.40172
   5.26154,  59.39071
   5.26280,  59.37972
   5.26405,  59.36875
   5.26531,  59.35780
   5.26657,  59.34687
   5.26782,  59.33596
   5.26908,  59.32507
   5.27034,  59.31419
   5.27159,  59.30333
   5.27285,  59.29250
   5.27411,  59.28168
   5.27536,  59.27087
   5.27662,  59.26009
   5.27788,  59.24933
   5.27913,  59.23858
   5.28039,  59.22785
   5.28165,  59.21714
   5.28290,  59.20645
   5.28416,  59.19578
   5.28542,  59.18512
   5.28667,  59.17448
   5.28793,  59.16386
   5.28919,  59.15326
   5.29044,  59.14267
   5.29170,  59.13211
   5.29296,  59.12156
   5.29421,  59.11102
   5.29547,  59.10051
   5.29673,  59.09001
   5.29798,  59.07953
   5.29924,  59.06907
   5.30050,  59.05862
   5.30175,  59.04819
   5.30301,  59.03778
   5.30427,  59.02739
   5.30552,  59.01701
   5.30678,  59.00665
   5.30804,  58.99631
   5.30929,  58.98598
   5.31055,  58.97567
   5.31181,  58.96538
   5.31306,  58.95510
   5.31432,  58.94484
   5.31557,  58.93460
   5.31683,  58.92437
   5.31809,  58.91416
   5.31934,  58.90397
   5.32060,  58.89379
   5.32186,  58.88363
   5.32311,  58.87349
   5.32437,  58.86336
   5.32563,  58.85324
   5.32688,  58.84315
   5.32814,  58.83307
   5.32940,  58.82300
   5.33065,  58.81296
   5.33191,  58.80292
   5.33317,  58.79291
   5.33442,  58.78291
   5.33568,  58.77292
   5.33694,  58.76295
   5.33819,  58.75300
   5.33945,  58.74306
   5.34071,  58.73314
   5.34196,  58.72323
   5.34322,  58.71334
   5.34448,  58.70347
   5.34573,  58.69361
   5.34699,  58.68376
   5.34825,  58.67393
   5.34950,  58.66412
   5.35076,  58.65432
   5.35202,  58.64453
   5.35327,  58.63476
   5.35453,  58.62501
   5.35579,  58.61527
   5.35704,  58.60555
   5.35830,  58.59584
   5.35956,  58.58614
   5.36081,  58.57646
   5.36207,  58.56680
   5.36333,  58.55715
   5.36458,  58.54751
   5.36584,  58.53789
   5.36710,  58.52829
   5.36835,  58.51870
   5.36961,  58.50912
   5.37087,  58.49956
   5.37212,  58.49001
   5.37338,  58.48048
   5.37464,  58.47096
   5.37589,  58.46145
   5.37715,  58.45196
   5.37841,  58.44248
   5.37966,  58.43302
   5.38092,  58.42357
   5.38218,  58.41414
   5.38343,  58.40472
   5.38469,  58.39532
   5.38595,  58.38592
   5.38720,  58.37655
   5.38846,  58.36718
   5.38972,  58.35783
   5.39097,  58.34850
   5.39223,  58.33917
   5.39349,  58.32986
   5.39474,  58.32057
   5.39600,  58.31129
   5.39726,  58.30202
   5.39851,  58.29277
   5.39977,  58.28353
   5.40103,  58.27430
   5.40228,  58.26508
   5.40354,  58.25588
   5.40480,  58.24670
   5.40605,  58.23752
   5.40731,  58.22836
   5.40857,  58.21922
   5.40982,  58.21008
   5.41108,  58.20096
   5.41234,  58.19186
   5.41359,  58.18276
   5.41485,  58.17368
   5.41611,  58.16461
   5.41736,  58.15556
   5.41862,  58.14652
   5.41988,  58.13749
   5.42113,  58.12847
   5.42239,  58.11947
   5.42365,  58.11048
   5.42490,  58.10150
   5.42616,  58.09254
   5.42742,  58.08358
   5.42867,  58.07465
   5.42993,  58.06572
   5.43119,  58.05680
   5.43244,  58.04790
   5.43370,  58.03901
   5.43496,  58.03014
   5.43621,  58.02127
   5.43747,  58.01242
   5.43873,  58.00358
   5.43998,  57.99476
   5.44124,  57.98594
   5.44250,  57.97714
   5.44375,  57.96835
   5.44501,  57.95958
   5.44627,  57.95081
   5.44752,  57.94206
   5.44878,  57.93332
   5.45004,  57.92459
   5.45129,  57.91587
   5.45255,  57.90717
   5.45380,  57.89848
   5.45506,  57.88980
   5.45632,  57.88113
   5.45757,  57.87247
   5.45883,  57.86383
   5.46009,  57.85519
   5.46134,  57.84657
   5.46260,  57.83796
   5.46386,  57.82937
   5.46511,  57.82078
   5.46637,  57.81221
   5.46763,  57.80365
   5.46888,  57.79510
   5.47014,  57.78656
   5.47140,  57.77803
   5.47265,  57.76951
   5.47391,  57.76101
   5.47517,  57.75252
   5.47642,  57.74404
   5.47768,  57.73557
   5.47894,  57.72711
   5.48019,  57.71866
   5.48145,  57.71023
   5.48271,  57.70180
   5.48396,  57.69339
   5.48522,  57.68499
   5.48648,  57.67660
   5.48773,  57.66822
   5.48899,  57.65985
   5.49025,  57.65149
   5.49150,  57.64315
   5.49276,  57.63481
   5.49402,  57.62649
   5.49527,  57.61818
   5.49653,  57.60988
   5.49779,  57.60159
   5.49904,  57.59331
   5.50030,  57.58504
   5.50156,  57.57678
   5.50281,  57.56853
   5.50407,  57.56030
   5.50533,  57.55207
   5.50658,  57.54386
   5.50784,  57.53566
   5.50910,  57.52746
   5.51035,  57.51928
   5.51161,  57.51111
   5.51287,  57.50295
   5.51412,  57.49480
   5.51538,  57.48666
   5.51664,  57.47853
   5.51789,  57.47041
   5.51915,  57.46230
   5.52041,  57.45421
   5.52166,  57.44612
   5.52292,  57.43804
   5.52418,  57.42998
   5.52543,  57.42192
   5.52669,  57.41388
   5.52795,  57.40584
   5.52920,  57.39782
   5.53046,  57.38980
   5.53172,  57.38180
   5.53297,  57.37381
   5.53423,  57.36582
   5.53549,  57.35785
   5.53674,  57.34989
   5.53800,  57.34193
   5.53926,  57.33399
   5.54051,  57.32606
   5.54177,  57.31813
   5.54303,  57.31022
   5.54428,  57.30232
   5.54554,  57.29443
   5.54680,  57.28654
   5.54805,  57.27867
   5.54931,  57.27081
   5.55057,  57.26296
   5.55182,  57.25511
   5.55308,  57.24728
   5.55434,  57.23946
   5.55559,  57.23164
   5.55685,  57.22384
   5.55811,  57.21604
   5.55936,  57.20826
   5.56062,  57.20049
   5.56188,  57.19272
   5.56313,  57.18497
   5.56439,  57.17722
   5.56565,  57.16948
   5.56690,  57.16176
   5.56816,  57.15404
   5.56942,  57.14633
   5.57067,  57.13864
   5.57193,  57.13095
   5.57319,  57.12327
   5.57444,  57.11560
   5.57570,  57.10794
   5.57696,  57.10029
   5.57821,  57.09265
   5.57947,  57.08502
   5.58073,  57.07740
   5.58198,  57.06978
   5.58324,  57.06218
   5.58450,  57.05458
   5.58575,  57.04700
   5.58701,  57.03942
   5.58827,  57.03186
   5.58952,  57.02430
   5.59078,  57.01675
   5.59204,  57.00921
   5.59329,  57.00168
   5.59455,  56.99416
   5.59580,  56.98665
   5.59706,  56.97915
   5.59832,  56.97165
   5.59957,  56.96417
   5.60083,  56.95669
   5.60209,  56.94923
   5.60334,  56.94177
   5.60460,  56.93432
   5.60586,  56.92688
   5.60711,  56.91945
   5.60837,  56.91203
   5.60963,  56.90462
   5.61088,  56.89721
   5.61214,  56.88982
   5.61340,  56.88243
   5.61465,  56.87505
   5.61591,  56.86768
   5.61717,  56.86032
   5.61842,  56.85297
   5.61968,  56.84563
   5.62094,  56.83830
   5.62219,  56.83097
   5.62345,  56.82365
   5.62471,  56.81635
   5.62596,  56.80905
   5.62722,  56.80176
   5.62848,  56.79447
   5.62973,  56.78720
   5.63099,  56.77993
   5.63225,  56.77268
   5.63350,  56.76543
   5.63476,  56.75819
   5.63602,  56.75096
   5.63727,  56.74374
   5.63853,  56.73652
   5.63979,  56.72932
   5.64104,  56.72212
   5.64230,  56.71493
   5.64356,  56.70775
   5.64481,  56.70058
   5.64607,  56.69341
   5.64733,  56.68626
   5.64858,  56.67911
   5.64984,  56.67197
   5.65110,  56.66484
   5.65235,  56.65772
   5.65361,  56.65060
   5.65487,  56.64349
   5.65612,  56.63640
   5.65738,  56.62931
   5.65864,  56.62222
   5.65989,  56.61515
   5.66115,  56.60808
   5.66241,  56.60103
   5.66366,  56.59398
   5.66492,  56.58694
   5.66618,  56.57990
   5.66743,  56.57288
   5.66869,  56.56586
   5.66995,  56.55885
   5.67120,  56.55185
   5.67246,  56.54485
   5.67372,  56.53787
   5.67497,  56.53089
   5.67623,  56.52392
   5.67749,  56.51696
   5.67874,  56.51000
   5.68000,  56.50306
   5.68126,  56.49612
   5.68251,  56.48919
   5.68377,  56.48227
   5.68503,  56.47535
   5.68628,  56.46844
   5.68754,  56.46154
   5.68880,  56.45465
   5.69005,  56.44777
   5.69131,  56.44089
   5.69257,  56.43402
   5.69382,  56.42716
   5.69508,  56.42031
   5.69634,  56.41346
   5.69759,  56.40662
   5.69885,  56.39979
   5.70011,  56.39297
   5.70136,  56.38615
   5.70262,  56.37935
   5.70388,  56.37255
   5.70513,  56.36575
   5.70639,  56.35897
   5.70765,  56.35219
   5.70890,  56.34542
   5.71016,  56.33866
   5.71142,  56.33190
   5.71267,  56.32515
   5.71393,  56.31841
   5.71519,  56.31168
   5.71644,  56.30495
   5.71770,  56.29823
   5.71896,  56.29152
   5.72021,  56.28482
   5.72147,  56.27812
   5.72273,  56.27143
   5.72398,  56.26475
   5.72524,  56.25808
   5.72650,  56.25141
   5.72775,  56.24475
   5.72901,  56.23810
   5.73027,  56.23145
   5.73152,  56.22481
   5.73278,  56.21818
   5.73404,  56.21156
   5.73529,  56.20494
   5.73655,  56.19833
   5.73780,  56.19173
   5.73906,  56.18513
   5.74032,  56.17854
   5.74157,  56.17196
   5.74283,  56.16539
   5.74409,  56.15882
   5.74534,  56.15226
   5.74660,  56.14571
   5.74786,  56.13916
   5.74911,  56.13262
   5.75037,  56.12609
   5.75163,  56.11956
   5.75288,  56.11305
   5.75414,  56.10653
   5.75540,  56.10003
   5.75665,  56.09353
   5.75791,  56.08704
   5.75917,  56.08056
   5.76042,  56.07408
   5.76168,  56.06761
   5.76294,  56.06115
   5.76419,  56.05469
   5.76545,  56.04824
   5.76671,  56.04180
   5.76796,  56.03536
   5.76922,  56.02894
   5.77048,  56.02251
   5.77173,  56.01610
   5.77299,  56.00969
   5.77425,  56.00329
   5.77550,  55.99689
   5.77676,  55.99050
   5.77802,  55.98412
   5.77927,  55.97775
   5.78053,  55.97138
   5.78179,  55.96501
   5.78304,  55.95866
   5.78430,  55.95231
   5.78556,  55.94597
   5.78681,  55.93963
   5.78807,  55.93330
   5.78933,  55.92698
   5.79058,  55.92067
   5.79184,  55.91436
   5.79310,  55.90805
   5.79435,  55.90176
   5.79561,  55.89547
   5.79687,  55.88918
   5.79812,  55.88291
   5.79938,  55.87664
   5.80064,  55.87037
   5.80189,  55.86412
   5.80315,  55.85787
   5.80441,  55.85162
   5.80566,  55.84538
   5.80692,  55.83915
   5.80818,  55.83293
   5.80943,  55.82671
   5.81069,  55.82049
   5.81195,  55.81429
   5.81320,  55.80809
   5.81446,  55.80189
   5.81572,  55.79571
   5.81697,  55.78953
   5.81823,  55.78335
   5.81949,  55.77718
   5.82074,  55.77102
   5.82200,  55.76487
   5.82326,  55.75872
   5.82451,  55.75257
   5.82577,  55.74644
   5.82703,  55.74030
   5.82828,  55.73418
   5.82954,  55.72806
   5.83080,  55.72195
   5.83205,  55.71584
   5.83331,  55.70974
   5.83457,  55.70365
   5.83582,  55.69756
   5.83708,  55.69148
   5.83834,  55.68540
   5.83959,  55.67933
   5.84085,  55.67327
   5.84211,  55.66721
   5.84336,  55.66116
   5.84462,  55.65512
   5.84588,  55.64908
   5.84713,  55.64304
   5.84839,  55.63702
   5.84965,  55.63099
   5.85090,  55.62498
   5.85216,  55.61897
   5.85342,  55.61297
   5.85467,  55.60697
   5.85593,  55.60098
   5.85719,  55.59499
   5.85844,  55.58901
   5.85970,  55.58304
   5.86096,  55.57707
   5.86221,  55.57111
   5.86347,  55.56515
   5.86473,  55.55920
   5.86598,  55.55326
   5.86724,  55.54732
   5.86850,  55.54139
   5.86975,  55.53546
   5.87101,  55.52954
   5.87227,  55.52362
   5.87352,  55.51771
   5.87478,  55.51181
   5.87604,  55.50591
   5.87729,  55.50002
   5.87855,  55.49413
   5.87980,  55.48825
   5.88106,  55.48238
   5.88232,  55.47651
   5.88357,  55.47065
   5.88483,  55.46479
   5.88609,  55.45894
   5.88734,  55.45309
   5.88860,  55.44725
   5.88986,  55.44141
   5.89111,  55.43559
   5.89237,  55.42976
   5.89363,  55.42394
   5.89488,  55.41813
   5.89614,  55.41232
   5.89740,  55.40652
   5.89865,  55.40073
   5.89991,  55.39494
   5.90117,  55.38915
   5.90242,  55.38337
   5.90368,  55.37760
   5.90494,  55.37183
   5.90619,  55.36607
   5.90745,  55.36031
   5.90871,  55.35456
   5.90996,  55.34882
   5.91122,  55.34307
   5.91248,  55.33734
   5.91373,  55.33161
   5.91499,  55.32589
   5.91625,  55.32017
   5.91750,  55.31445
   5.91876,  55.30875
   5.92002,  55.30304
   5.92127,  55.29735
   5.92253,  55.29166
   5.92379,  55.28597
   5.92504,  55.28029
   5.92630,  55.27461
   5.92756,  55.26894
   5.92881,  55.26328
   5.93007,  55.25762
   5.93133,  55.25197
   5.93258,  55.24632
   5.93384,  55.24067
   5.93510,  55.23504
   5.93635,  55.22940
   5.93761,  55.22378
   5.93887,  55.21815
   5.94012,  55.21254
   5.94138,  55.20693
   5.94264,  55.20132
   5.94389,  55.19572
   5.94515,  55.19012
   5.94641,  55.18453
   5.94766,  55.17895
   5.94892,  55.17337
   5.95018,  55.16779
   5.95143,  55.16222
   5.95269,  55.15666
   5.95395,  55.15110
   5.95520,  55.14554
   5.95646,  55.13999
   5.95772,  55.13445
   5.95897,  55.12891
   5.96023,  55.12338
   5.96149,  55.11785
   5.96274,  55.11233
   5.96400,  55.10681
   5.96526,  55.10129
   5.96651,  55.09579
   5.96777,  55.09028
   5.96903,  55.08478
   5.97028,  55.07929
   5.97154,  55.07380
   5.97280,  55.06832
   5.97405,  55.06284
   5.97531,  55.05737
   5.97657,  55.05190
   5.97782,  55.04644
   5.97908,  55.04098
   5.98034,  55.03553
   5.98159,  55.03008
   5.98285,  55.02464
   5.98411,  55.01920
   5.98536,  55.01377
   5.98662,  55.00834
   5.98788,  55.00292
   5.98913,  54.99750
   5.99039,  54.99208
   5.99165,  54.98668
   5.99290,  54.98127
   5.99416,  54.97587
   5.99542,  54.97048
   5.99667,  54.96509
   5.99793,  54.95971
   5.99919,  54.95433
   6.00044,  54.94895
   6.00170,  54.94358
   6.00296,  54.93822
   6.00421,  54.93286
   6.00547,  54.92751
   6.00673,  54.92216
   6.00798,  54.91681
   6.00924,  54.91147
   6.01050,  54.90613
   6.01175,  54.90080
   6.01301,  54.89548
   6.01427,  54.89016
   6.01552,  54.88484
   6.01678,  54.87953
   6.01804,  54.87422
   6.01929,  54.86892
   6.02055,  54.86362
   6.02180,  54.85833
   6.02306,  54.85304
   6.02432,  54.84776
   6.02557,  54.84248
   6.02683,  54.83720
   6.02809,  54.83193
   6.02934,  54.82667
   6.03060,  54.82141
   6.03186,  54.81615
   6.03311,  54.81090
   6.03437,  54.80566
   6.03563,  54.80041
   6.03688,  54.79518
   6.03814,  54.78995
   6.03940,  54.78472
   6.04065,  54.77950
   6.04191,  54.77428
   6.04317,  54.76906
   6.04442,  54.76385
   6.04568,  54.75865
   6.04694,  54.75345
   6.04819,  54.74825
   6.04945,  54.74306
   6.05071,  54.73788
   6.05196,  54.73269
   6.05322,  54.72752
   6.05448,  54.72234
   6.05573,  54.71718
   6.05699,  54.71201
   6.05825,  54.70685
   6.05950,  54.70170
   6.06076,  54.69655
   6.06202,  54.69140
   6.06327,  54.68626
   6.06453,  54.68112
   6.06579,  54.67599
   6.06704,  54.67086
   6.06830,  54.66574
   6.06956,  54.66062
   6.07081,  54.65551
   6.07207,  54.65040
   6.07333,  54.64529
   6.07458,  54.64019
   6.07584,  54.63509
   6.07710,  54.63000
   6.07835,  54.62491
   6.07961,  54.61983
   6.08087,  54.61475
   6.08212,  54.60967
   6.08338,  54.60460
   6.08464,  54.59954
   6.08589,  54.59447
   6.08715,  54.58942
   6.08841,  54.58436
   6.08966,  54.57931
   6.09092,  54.57427
   6.09218,  54.56923
   6.09343,  54.56419
   6.09469,  54.55916
   6.09595,  54.55413
   6.09720,  54.54911
   6.09846,  54.54409
   6.09972,  54.53908
   6.10097,  54.53407
   6.10223,  54.52906
   6.10349,  54.52406
   6.10474,  54.51906
   6.10600,  54.51407
   6.10726,  54.50908
   6.10851,  54.50409
   6.10977,  54.49911
   6.11103,  54.49413
   6.11228,  54.48916
   6.11354,  54.48419
   6.11480,  54.47923
   6.11605,  54.47427
   6.11731,  54.46932
   6.11857,  54.46436
   6.11982,  54.45942
   6.12108,  54.45447
   6.12234,  54.44953
   6.12359,  54.44460
   6.12485,  54.43967
   6.12611,  54.43474
   6.12736,  54.42982
   6.12862,  54.42490
   6.12988,  54.41999
   6.13113,  54.41508
   6.13239,  54.41017
   6.13365,  54.40527
   6.13490,  54.40037
   6.13616,  54.39548
   6.13742,  54.39059
   6.13867,  54.38570
   6.13993,  54.38082
   6.14119,  54.37595
   6.14244,  54.37107
   6.14370,  54.36620
   6.14496,  54.36134
   6.14621,  54.35648
   6.14747,  54.35162
   6.14873,  54.34677
   6.14998,  54.34192
   6.15124,  54.33707
   6.15250,  54.33223
   6.15375,  54.32739
   6.15501,  54.32256
   6.15627,  54.31773
   6.15752,  54.31291
   6.15878,  54.30809
   6.16004,  54.30327
   6.16129,  54.29845
   6.16255,  54.29365
   6.16380,  54.28884
   6.16506,  54.28404
   6.16632,  54.27924
   6.16757,  54.27445
   6.16883,  54.26966
   6.17009,  54.26487
   6.17134,  54.26009
   6.17260,  54.25531
   6.17386,  54.25054
   6.17511,  54.24577
   6.17637,  54.24100
   6.17763,  54.23624
   6.17888,  54.23148
   6.18014,  54.22673
   6.18140,  54.22198
   6.18265,  54.21723
   6.18391,  54.21249
   6.18517,  54.20775
   6.18642,  54.20301
   6.18768,  54.19828
   6.18894,  54.19355
   6.19019,  54.18883
   6.19145,  54.18411
   6.19271,  54.17939
   6.19396,  54.17468
   6.19522,  54.16997
   6.19648,  54.16527
   6.19773,  54.16057
   6.19899,  54.15587
   6.20025,  54.15118
   6.20150,  54.14649
   6.20276,  54.14180
   6.20402,  54.13712
   6.20527,  54.13244
   6.20653,  54.12777
   6.20779,  54.12310
   6.20904,  54.11843
   6.21030,  54.11377
   6.21156,  54.10911
   6.21281,  54.10445
   6.21407,  54.09980
   6.21533,  54.09515
   6.21658,  54.09051
   6.21784,  54.08586
   6.21910,  54.08123
   6.22035,  54.07659
   6.22161,  54.07196
   6.22287,  54.06734
   6.22412,  54.06272
   6.22538,  54.05810
   6.22664,  54.05348
   6.22789,  54.04887
   6.22915,  54.04426
   6.23041,  54.03966
   6.23166,  54.03506
   6.23292,  54.03046
   6.23418,  54.02587
   6.23543,  54.02128
   6.23669,  54.01669
   6.23795,  54.01211
   6.23920,  54.00753
   6.24046,  54.00295
   6.24172,  53.99838
   6.24297,  53.99381
   6.24423,  53.98925
   6.24549,  53.98469
   6.24674,  53.98013
   6.24800,  53.97558
   6.24926,  53.97103
   6.25051,  53.96648
   6.25177,  53.96194
   6.25303,  53.95740
   6.25428,  53.95286
   6.25554,  53.94833
   6.25680,  53.94380
   6.25805,  53.93928
   6.25931,  53.93476
   6.26057,  53.93024
   6.26182,  53.92572
   6.26308,  53.92121
   6.26434,  53.91670
   6.26559,  53.91220
   6.26685,  53.90770
   6.26811,  53.90320
   6.26936,  53.89871
   6.27062,  53.89422
   6.27188,  53.88973
   6.27313,  53.88525
   6.27439,  53.88077
   6.27565,  53.87629
   6.27690,  53.87182
   6.27816,  53.86735
   6.27942,  53.86288
   6.28067,  53.85842
   6.28193,  53.85396
